BlockType,CondsFile,ImageFile,Time,CorrectResp,runs.thisRepN,runs.thisTrialN,runs.thisN,runs.thisIndex,studyblock.thisRepN,studyblock.thisTrialN,studyblock.thisN,studyblock.thisIndex,studytrial.thisRepN,studytrial.thisTrialN,studytrial.thisN,studytrial.thisIndex,thisRow.t,notes,inst4_2.started,study_inst_2.started,fmri_resp_2.started,inst4_2.stopped,study_block.started,InstStudyBlock_Img.started,key_resp.started,study_block.stopped,block_start_time,key_resp.keys,key_resp.rt,key_resp.duration,fix.started,text.started,text.stopped,fix.stopped,study_trial.started,Study_Img.started,Study_Resp.started,stimulus_start_time,study_trial.stopped,Study_Resp.keys,Study_Resp.corr,Study_Resp.rt,Study_Resp.duration,Study_Img.stopped,Study_Resp.stopped,wait.started,wait_fix.started,fmri_resp2.started,wait.stopped,fmri_resp2.keys,fmri_resp2.rt,fmri_resp2.duration,wait_2.started,wait_fix_2.started,fmri_resp2_2.started,wait_2.stopped,fmri_resp2_2.keys,fmri_resp2_2.rt,fmri_resp2_2.duration,finish.started,wait_3.started,finish.stopped,workerId,session,date,expName,psychopyVersion,frameRate,expStart,
,,,,,,,,,,,,,,,,,,,0.004479765999803931,0.01622780400020929,2.002275289999943,79.12580275500022,,,,,,,,,,,,,,,,,,,,,,,,,,,,,,,,,,,,,,,,,CBAS0006,1,2025-02-25_09h36.59.257,ObjectScenePairTask_local_study2,2024.1.4,None,2025-02-25 09h39.52.805180 -0500,
instructions/Slide006.jpeg,study/imagelist_pair_study5.xlsx,study/images/Pair69_1.jpeg,2.646958313934766,num_8,0,0,0,0,0,0,0,2,0,0,0,3,88.43235924100009,,,,,,79.14435275300002,79.19699931800005,79.19699931800005,88.40987256800008,9.28406866100022,num_2,9.203100696999627,None,88.41899692300012,88.43235924100009,91.11375615499992,91.074540952,91.07458853300022,91.11375615499992,91.11375615499992,11.988538389000041,94.08207664100019,num_5,0,2.4460976180002945,None,,,,,,,,,,,,,,,,,,,,CBAS0006,1,2025-02-25_09h36.59.257,ObjectScenePairTask_local_study2,2024.1.4,None,2025-02-25 09h39.52.805180 -0500,
instructions/Slide006.jpeg,study/imagelist_pair_study5.xlsx,study/images/Pair79_1.jpeg,2.8144069703025054,num_8,0,0,0,0,0,0,0,2,0,1,1,13,94.0890791830002,,,,,,,,,,,,,,94.0836120580002,94.0890791830002,96.919438764,96.89260748400011,96.8926327260001,96.919438764,96.919438764,17.793976725999983,99.90303289199983,None,0,,,,,,,,,,,,,,,,,,,,,,CBAS0006,1,2025-02-25_09h36.59.257,ObjectScenePairTask_local_study2,2024.1.4,None,2025-02-25 09h39.52.805180 -0500,
instructions/Slide006.jpeg,study/imagelist_pair_study5.xlsx,study/images/Pair73_1.jpeg,1.1329768430713747,num_5,0,0,0,0,0,0,0,2,0,2,2,7,99.90928791299984,,,,,,,,,,,,,,99.90412395600015,99.90928791299984,101.06038937999983,101.0357862400001,101.035812524,101.06038937999983,101.06038937999983,21.93492874599997,104.0365416159998,None,0,,,,,,,,,,,,,,,,,,,,,,CBAS0006,1,2025-02-25_09h36.59.257,ObjectScenePairTask_local_study2,2024.1.4,None,2025-02-25 09h39.52.805180 -0500,
instructions/Slide006.jpeg,study/imagelist_pair_study5.xlsx,study/images/Pair64_1.jpeg,2.6558401639636573,num_8,0,0,0,0,0,0,0,2,0,3,3,0,104.05097451199981,,,,,,,,,,,,,,104.03758226399987,104.05097451199981,106.71062896600006,106.69024747200001,106.69027543499988,106.71062896600006,106.71062896600006,27.58527210400007,109.70177164699999,num_5,0,1.7372097170000416,0.28796869500001776,,,,,,,,,,,,,,,,,,,,CBAS0006,1,2025-02-25_09h36.59.257,ObjectScenePairTask_local_study2,2024.1.4,None,2025-02-25 09h39.52.805180 -0500,
instructions/Slide006.jpeg,study/imagelist_pair_study5.xlsx,study/images/Pair71_1.jpeg,1.7569355746166397,num_5,0,0,0,0,0,0,0,2,0,4,4,5,109.71645263299979,,,,,,,,,,,,,,109.7028472410002,109.71645263299979,111.49398676800001,111.46914912800003,111.46919635199993,111.49398676800001,111.49398676800001,32.36876073199983,114.47082649899994,num_5,1,1.8498430499998904,0.24825474399995073,,,,,,,,,,,,,,,,,,,,CBAS0006,1,2025-02-25_09h36.59.257,ObjectScenePairTask_local_study2,2024.1.4,None,2025-02-25 09h39.52.805180 -0500,
instructions/Slide006.jpeg,study/imagelist_pair_study5.xlsx,study/images/Pair74_1.jpeg,2.46587700575841,num_5,0,0,0,0,0,0,0,2,0,5,5,8,114.48402964500019,,,,,,,,,,,,,,114.47255585999983,114.48402964500019,116.96018183000024,116.93435467400013,116.93440144299984,116.96018183000024,116.96018183000024,37.834864685999946,119.94988617199988,num_5,1,2.2798957800000608,0.22376770499977283,,,,,,,,,,,,,,,,,,,,CBAS0006,1,2025-02-25_09h36.59.257,ObjectScenePairTask_local_study2,2024.1.4,None,2025-02-25 09h39.52.805180 -0500,
instructions/Slide006.jpeg,study/imagelist_pair_study5.xlsx,study/images/Pair68_1.jpeg,2.2524932607944885,num_5,0,0,0,0,0,0,0,2,0,6,6,2,119.96611116199983,,,,,,,,,,,,,,119.9511721240001,119.96611116199983,122.23917926800004,122.2164875919998,122.21655267899996,122.23917926800004,122.23917926800004,43.113787025999954,125.23181934600007,num_5,1,2.0165659750000486,0.22404859700009183,,,,,,,,,,,,,,,,,,,,CBAS0006,1,2025-02-25_09h36.59.257,ObjectScenePairTask_local_study2,2024.1.4,None,2025-02-25 09h39.52.805180 -0500,
instructions/Slide006.jpeg,study/imagelist_pair_study5.xlsx,study/images/Pair77_1.jpeg,2.394205384244048,num_5,0,0,0,0,0,0,0,2,0,7,7,11,125.2480417339998,,,,,,,,,,,,,,125.2330891370002,125.2480417339998,127.65438924499995,127.6311268710001,127.63120320000007,127.65438924499995,127.65438924499995,48.52918211499991,130.63229229299986,num_5,1,2.8893951270001708,None,,,,,,,,,,,,,,,,,,,,CBAS0006,1,2025-02-25_09h36.59.257,ObjectScenePairTask_local_study2,2024.1.4,None,2025-02-25 09h39.52.805180 -0500,
instructions/Slide006.jpeg,study/imagelist_pair_study5.xlsx,study/images/Pair67_1.jpeg,1.032492422885639,num_8,0,0,0,0,0,0,0,2,0,8,8,1,130.643860571,,,,,,,,,,,,,,130.63320555300015,130.643860571,131.68808744399985,131.66351995600007,131.66356694900014,131.68808744399985,131.68808744399985,52.56287982399999,134.67695921999984,None,0,,,,,,,,,,,,,,,,,,,,,,CBAS0006,1,2025-02-25_09h36.59.257,ObjectScenePairTask_local_study2,2024.1.4,None,2025-02-25 09h39.52.805180 -0500,
instructions/Slide006.jpeg,study/imagelist_pair_study5.xlsx,study/images/Pair72_1.jpeg,2.9924688236749515,num_8,0,0,0,0,0,0,0,2,0,9,9,6,134.6839698230001,,,,,,,,,,,,,,134.67779081300023,134.6839698230001,137.685260018,137.661712308,137.6617597149998,137.685260018,137.685260018,58.560136191999845,140.66471489800006,None,0,,,,,,,,,,,,,,,,,,,,,,CBAS0006,1,2025-02-25_09h36.59.257,ObjectScenePairTask_local_study2,2024.1.4,None,2025-02-25 09h39.52.805180 -0500,
instructions/Slide006.jpeg,study/imagelist_pair_study5.xlsx,study/images/Pair78_1.jpeg,1.5686401213442056,num_8,0,0,0,0,0,0,0,2,0,10,10,12,140.67496153899992,,,,,,,,,,,,,,140.66554725000015,140.67496153899992,142.25576281800022,142.2273787439999,142.22744396999997,142.25576281800022,142.25576281800022,63.13039558199989,145.2423908599999,num_5,0,2.8643821660002686,None,,,,,,,,,,,,,,,,,,,,CBAS0006,1,2025-02-25_09h36.59.257,ObjectScenePairTask_local_study2,2024.1.4,None,2025-02-25 09h39.52.805180 -0500,
instructions/Slide006.jpeg,study/imagelist_pair_study5.xlsx,study/images/Pair76_1.jpeg,2.9957728268502475,num_5,0,0,0,0,0,0,0,2,0,11,11,10,145.25855566300015,,,,,,,,,,,,,,145.24393869300002,145.25855566300015,148.26416180200022,148.24157354599993,148.24160601999984,148.26416180200022,148.26416180200022,69.13884058400026,151.25782354500006,num_5,1,1.5200105389999408,0.19165728600000875,,,,,,,,,,,,,,,,,,,,CBAS0006,1,2025-02-25_09h36.59.257,ObjectScenePairTask_local_study2,2024.1.4,None,2025-02-25 09h39.52.805180 -0500,
instructions/Slide006.jpeg,study/imagelist_pair_study5.xlsx,study/images/Pair75_1.jpeg,2.6777627394516497,num_5,0,0,0,0,0,0,0,2,0,12,12,9,151.27455706299997,,,,,,,,,,,,,,151.25942239100004,151.27455706299997,153.9677542989998,153.9408400379998,153.94088849299987,153.9677542989998,153.9677542989998,74.84263207000004,156.94196550000015,num_5,1,1.656040757000028,0.2320459879997543,,,,,,,,,,,,,,,,,,,,CBAS0006,1,2025-02-25_09h36.59.257,ObjectScenePairTask_local_study2,2024.1.4,None,2025-02-25 09h39.52.805180 -0500,
instructions/Slide006.jpeg,study/imagelist_pair_study5.xlsx,study/images/Pair70_1.jpeg,1.380427696284317,num_8,0,0,0,0,0,0,0,2,0,13,13,4,156.9531058020002,,,,,,,,,,,,,,156.9434770050002,156.9531058020002,158.34619305700016,158.32099665399983,158.3210453229999,158.34619305700016,158.34619305700016,79.22097435400019,161.32127767700013,num_5,0,2.557577384999604,0.1680599340002118,,,,,,,,,,,,,,,,,,,,CBAS0006,1,2025-02-25_09h36.59.257,ObjectScenePairTask_local_study2,2024.1.4,None,2025-02-25 09h39.52.805180 -0500,
instructions/Slide006.jpeg,study/imagelist_pair_study5.xlsx,,,,0,0,0,0,0,0,0,2,,,,,,,,,,,,,,,,,,,,,,,,,,,,,,,,,,,,,,,,,,,,,,,,,,,CBAS0006,1,2025-02-25_09h36.59.257,ObjectScenePairTask_local_study2,2024.1.4,None,2025-02-25 09h39.52.805180 -0500,
instructions/Slide006.jpeg,study/imagelist_pair_study1.xlsx,study/images/Pair12_1.jpeg,1.4831341915987075,num_8,0,0,0,0,0,1,1,3,0,0,0,11,170.00213644899986,,,,,,161.3792344100002,161.4149623039998,161.4149623039998,169.98563734400022,90.85982920200013,num_2,8.560896963000232,None,169.993937834,170.00213644899986,171.49738804200024,171.4727062699999,171.47273779599982,171.49738804200024,171.49738804200024,92.37214077199997,174.48201254600008,num_5,0,2.238420356000006,0.29596375199980685,,,,,,,,,,,,,,,,,,,,CBAS0006,1,2025-02-25_09h36.59.257,ObjectScenePairTask_local_study2,2024.1.4,None,2025-02-25 09h39.52.805180 -0500,
instructions/Slide006.jpeg,study/imagelist_pair_study1.xlsx,study/images/Pair3_1.jpeg,1.3862482165297751,num_5,0,0,0,0,0,1,1,3,0,1,1,2,174.48940769499995,,,,,,,,,,,,,,174.4841661229998,174.48940769499995,175.8983589469999,175.86802218499997,175.8680704100002,175.8983589469999,175.8983589469999,96.77303484599997,178.88390658700018,None,0,,,,,,,,,,,,,,,,,,,,,,CBAS0006,1,2025-02-25_09h36.59.257,ObjectScenePairTask_local_study2,2024.1.4,None,2025-02-25 09h39.52.805180 -0500,
instructions/Slide006.jpeg,study/imagelist_pair_study1.xlsx,study/images/Pair9_1.jpeg,2.4481087706488074,num_5,0,0,0,0,0,1,1,3,0,2,2,8,178.90001256300002,,,,,,,,,,,,,,178.8850077709999,178.90001256300002,181.3604628060002,181.33369011800005,181.33373857000015,181.3604628060002,181.3604628060002,102.23527741399994,184.34886906400016,num_5,1,2.4475861070000065,0.31182509200016284,,,,,,,,,,,,,,,,,,,,CBAS0006,1,2025-02-25_09h36.59.257,ObjectScenePairTask_local_study2,2024.1.4,None,2025-02-25 09h39.52.805180 -0500,
instructions/Slide006.jpeg,study/imagelist_pair_study1.xlsx,study/images/Pair1_1.jpeg,2.7747730895760014,num_8,0,0,0,0,0,1,1,3,0,3,3,0,184.36500561100002,,,,,,,,,,,,,,184.35044878500003,184.36500561100002,187.16077297099991,187.13192499800016,187.1319722899998,187.16077297099991,187.16077297099991,108.03563139400012,190.14783248100002,None,0,,,,,,,,,,,,,,,,,,,,,,CBAS0006,1,2025-02-25_09h36.59.257,ObjectScenePairTask_local_study2,2024.1.4,None,2025-02-25 09h39.52.805180 -0500,
instructions/Slide006.jpeg,study/imagelist_pair_study1.xlsx,study/images/Pair10_1.jpeg,2.664357674563501,num_5,0,0,0,0,0,1,1,3,0,4,4,9,190.16428596000014,,,,,,,,,,,,,,190.14906503300017,190.16428596000014,192.8337860890001,192.8184959539999,192.8185113290001,192.8337860890001,192.8337860890001,113.70842477699989,195.8177687289999,num_5,1,1.4542850139996517,0.19172250900010113,195.82671585700018,195.82671585700018,,,,,,,,,,,,,,,,,,CBAS0006,1,2025-02-25_09h36.59.257,ObjectScenePairTask_local_study2,2024.1.4,None,2025-02-25 09h39.52.805180 -0500,
instructions/Slide006.jpeg,study/imagelist_pair_study1.xlsx,study/images/Pair8_1.jpeg,1.90066173726432,num_8,0,0,0,0,0,1,1,3,0,5,5,7,195.82671585700018,,,,,,,,,,,,,,195.81906936099995,195.82671585700018,197.74109081300003,197.71666947699987,197.716717409,197.74109081300003,197.74109081300003,118.61591347100011,200.7271352990001,None,0,,,,,,,,,,,,,,,,,,,,,,CBAS0006,1,2025-02-25_09h36.59.257,ObjectScenePairTask_local_study2,2024.1.4,None,2025-02-25 09h39.52.805180 -0500,
instructions/Slide006.jpeg,study/imagelist_pair_study1.xlsx,study/images/Pair2_1.jpeg,2.267154844388127,num_8,0,0,0,0,0,1,1,3,0,6,6,1,200.74382556499995,,,,,,,,,,,,,,200.72829445200023,200.74382556499995,203.0242549290001,202.99475408099988,202.99483619300008,203.0242549290001,203.0242549290001,123.89900642900011,206.00960576599982,None,0,,,,,,,,,,,,,,,,,,,,,,CBAS0006,1,2025-02-25_09h36.59.257,ObjectScenePairTask_local_study2,2024.1.4,None,2025-02-25 09h39.52.805180 -0500,
instructions/Slide006.jpeg,study/imagelist_pair_study1.xlsx,study/images/Pair4_1.jpeg,2.951566686265909,num_5,0,0,0,0,0,1,1,3,0,7,7,3,206.02599764100023,,,,,,,,,,,,,,206.01084442899992,206.02599764100023,209.0040034980002,208.97581172299988,208.97586033000016,209.0040034980002,209.0040034980002,129.87874289699994,211.99123709200012,num_5,1,1.8757785859997966,0.2001671040002293,,,,,,,,,,,,,,,,,,,,CBAS0006,1,2025-02-25_09h36.59.257,ObjectScenePairTask_local_study2,2024.1.4,None,2025-02-25 09h39.52.805180 -0500,
instructions/Slide006.jpeg,study/imagelist_pair_study1.xlsx,study/images/Pair7_1.jpeg,2.515311110852611,num_8,0,0,0,0,0,1,1,3,0,8,8,6,212.0073955590001,,,,,,,,,,,,,,211.99280979700006,212.0073955590001,214.53127314199992,214.507782486,214.50782694999998,214.53127314199992,214.53127314199992,135.40619379700001,217.52311987700023,num_5,0,2.428520079000009,0.20000918799996725,,,,,,,,,,,,,,,,,,,,CBAS0006,1,2025-02-25_09h36.59.257,ObjectScenePairTask_local_study2,2024.1.4,None,2025-02-25 09h39.52.805180 -0500,
instructions/Slide006.jpeg,study/imagelist_pair_study1.xlsx,study/images/Pair14_1.jpeg,2.7453401693542876,num_5,0,0,0,0,0,1,1,3,0,9,9,13,217.53676751700004,,,,,,,,,,,,,,217.524670281,217.53676751700004,220.2863481989998,220.26969426100004,220.26970807999987,220.2863481989998,220.2863481989998,141.1610429100001,223.27415357100017,num_5,1,2.1777363350001906,0.2717095309999422,,,,,,,,,,,,,,,,,,,,CBAS0006,1,2025-02-25_09h36.59.257,ObjectScenePairTask_local_study2,2024.1.4,None,2025-02-25 09h39.52.805180 -0500,
instructions/Slide006.jpeg,study/imagelist_pair_study1.xlsx,study/images/Pair13_1.jpeg,2.1608979942810542,num_8,0,0,0,0,0,1,1,3,0,10,10,12,223.28473460199984,,,,,,,,,,,,,,223.27525285699994,223.28473460199984,225.4631180790002,225.43581253799994,225.43584487299995,225.4631180790002,225.4631180790002,146.33793296800013,228.43666858799997,None,0,,,,,,,,,,,,,,,,,,,,,,CBAS0006,1,2025-02-25_09h36.59.257,ObjectScenePairTask_local_study2,2024.1.4,None,2025-02-25 09h39.52.805180 -0500,
instructions/Slide006.jpeg,study/imagelist_pair_study1.xlsx,study/images/Pair11_1.jpeg,1.4440167664362138,num_8,0,0,0,0,0,1,1,3,0,11,11,10,228.45055250799987,,,,,,,,,,,,,,228.43789653900012,228.45055250799987,229.91047459499987,229.884592764,229.88462511599982,229.91047459499987,229.91047459499987,150.78544863600018,232.88867306300017,num_5,0,2.2333891149996816,0.24795738700004222,,,,,,,,,,,,,,,,,,,,CBAS0006,1,2025-02-25_09h36.59.257,ObjectScenePairTask_local_study2,2024.1.4,None,2025-02-25 09h39.52.805180 -0500,
instructions/Slide006.jpeg,study/imagelist_pair_study1.xlsx,study/images/Pair5_1.jpeg,1.445217057241547,num_8,0,0,0,0,0,1,1,3,0,12,12,4,232.9010752869999,,,,,,,,,,,,,,232.89020543800007,232.9010752869999,234.36115403199983,234.334072568,234.33410492199982,234.36115403199983,234.36115403199983,155.2361138790002,237.35086547299989,num_5,0,0.08658795700011979,0.16801494599985745,,,,,,,,,,,,,,,,,,,,CBAS0006,1,2025-02-25_09h36.59.257,ObjectScenePairTask_local_study2,2024.1.4,None,2025-02-25 09h39.52.805180 -0500,
instructions/Slide006.jpeg,study/imagelist_pair_study1.xlsx,study/images/Pair6_1.jpeg,1.5151691182010452,num_5,0,0,0,0,0,1,1,3,0,13,13,5,237.3673164070001,,,,,,,,,,,,,,237.3527915650002,237.3673164070001,238.88821756800007,238.86559145699994,238.8656242689999,238.88821756800007,238.88821756800007,159.76309827100022,241.86749941900007,num_5,1,1.9358315340000445,0.24783455799979492,,,,,,,,,,,,,,,,,,,,CBAS0006,1,2025-02-25_09h36.59.257,ObjectScenePairTask_local_study2,2024.1.4,None,2025-02-25 09h39.52.805180 -0500,
instructions/Slide006.jpeg,study/imagelist_pair_study1.xlsx,,,,0,0,0,0,0,1,1,3,,,,,,,,,,,,,,,,,,,,,,,,,,,,,,,,,,,,,,,,,,,,,,,,,,,CBAS0006,1,2025-02-25_09h36.59.257,ObjectScenePairTask_local_study2,2024.1.4,None,2025-02-25 09h39.52.805180 -0500,
instructions/Slide005.jpeg,study/imagelist_object_study1.xlsx,study/images/Obj9_1.jpeg,1.2055605833537681,num_8,0,0,0,0,0,2,2,0,0,0,0,11,252.2605796570001,,,,,,241.89926005100006,241.9240586159999,241.9240586159999,252.2449683220002,173.11916089499982,num_2,10.316074012000172,None,252.25497690500015,252.2605796570001,253.4837351000001,253.46213459,253.46216774899995,253.4837351000001,253.4837351000001,174.35882922300016,256.4626745149999,num_5,0,2.620236187000046,None,,,,,,,,,,,,,,,,,,,,CBAS0006,1,2025-02-25_09h36.59.257,ObjectScenePairTask_local_study2,2024.1.4,None,2025-02-25 09h39.52.805180 -0500,
instructions/Slide005.jpeg,study/imagelist_object_study1.xlsx,study/images/Obj30_1.jpeg,2.6438546826284073,num_8,0,0,0,0,0,2,2,0,0,1,1,3,256.4788950930001,,,,,,,,,,,,,,256.4652253260001,256.4788950930001,259.1342646349999,259.1124490510001,259.11248423899997,259.1342646349999,259.1342646349999,180.0092954050001,262.1279370719999,num_5,0,1.0575279300001057,0.1924711900001057,,,,,,,,,,,,,,,,,,,,CBAS0006,1,2025-02-25_09h36.59.257,ObjectScenePairTask_local_study2,2024.1.4,None,2025-02-25 09h39.52.805180 -0500,
instructions/Slide005.jpeg,study/imagelist_object_study1.xlsx,study/images/Obj12_1.jpeg,1.327944396112209,num_5,0,0,0,0,0,2,2,0,0,2,2,1,262.14377583199985,,,,,,,,,,,,,,262.12952543500023,262.14377583199985,263.47941764000007,263.46017509600006,263.4602083499999,263.47941764000007,263.47941764000007,184.35463064800024,266.4745980480002,num_5,1,2.304731785000058,None,,,,,,,,,,,,,,,,,,,,CBAS0006,1,2025-02-25_09h36.59.257,ObjectScenePairTask_local_study2,2024.1.4,None,2025-02-25 09h39.52.805180 -0500,
instructions/Slide005.jpeg,study/imagelist_object_study1.xlsx,study/images/Obj4_1.jpeg,1.5361792972146124,num_5,0,0,0,0,0,2,2,0,0,3,3,5,266.4818072050002,,,,,,,,,,,,,,266.47565649499984,266.4818072050002,268.031078686,268.010414243,268.0104639860001,268.031078686,268.031078686,188.9063553310002,271.02557576900017,num_5,1,2.0246699080003054,None,,,,,,,,,,,,,,,,,,,,CBAS0006,1,2025-02-25_09h36.59.257,ObjectScenePairTask_local_study2,2024.1.4,None,2025-02-25 09h39.52.805180 -0500,
instructions/Slide005.jpeg,study/imagelist_object_study1.xlsx,study/images/Obj65_1.jpeg,2.5505844888655185,num_8,0,0,0,0,0,2,2,0,0,4,4,6,271.041774927,,,,,,,,,,,,,,271.02719187699995,271.041774927,273.61137388299994,273.591820869,273.5918541609999,273.61137388299994,273.61137388299994,194.48643301699985,276.6068206939999,None,0,,,,,,,,,,,,,,,,,,,,,,CBAS0006,1,2025-02-25_09h36.59.257,ObjectScenePairTask_local_study2,2024.1.4,None,2025-02-25 09h39.52.805180 -0500,
instructions/Slide005.jpeg,study/imagelist_object_study1.xlsx,study/images/Obj46_1.jpeg,2.602853651968369,num_5,0,0,0,0,0,2,2,0,0,5,5,12,276.6234892880002,,,,,,,,,,,,,,276.6079661919998,276.6234892880002,279.24423377799985,279.2233950089999,279.22342785,279.24423377799985,279.24423377799985,200.11922149300017,282.2385920810002,num_5,1,1.0596056489998773,0.3039666230001785,,,,,,,,,,,,,,,,,,,,CBAS0006,1,2025-02-25_09h36.59.257,ObjectScenePairTask_local_study2,2024.1.4,None,2025-02-25 09h39.52.805180 -0500,
instructions/Slide005.jpeg,study/imagelist_object_study1.xlsx,study/images/Obj78_1.jpeg,1.4908405856986189,num_5,0,0,0,0,0,2,2,0,0,6,6,9,282.2556186380002,,,,,,,,,,,,,,282.23998214899984,282.2556186380002,283.7556481370002,283.7374400530002,283.7374883470002,283.7556481370002,283.7556481370002,204.6305873639999,286.75165233100006,num_5,1,0.9641696600001524,0.2880441550000796,,,,,,,,,,,,,,,,,,,,CBAS0006,1,2025-02-25_09h36.59.257,ObjectScenePairTask_local_study2,2024.1.4,None,2025-02-25 09h39.52.805180 -0500,
instructions/Slide005.jpeg,study/imagelist_object_study1.xlsx,study/images/Obj69_1.jpeg,2.5782488317627372,num_5,0,0,0,0,0,2,2,0,0,7,7,7,286.7589828209998,,,,,,,,,,,,,,286.75343101,286.7589828209998,289.34517046300016,289.3252728709999,289.32532333200015,289.34517046300016,289.34517046300016,210.2201585470002,292.33537509300004,num_5,1,3.388185374000386,-2.0535707890003323,,,,,,,,,,,,,,,,,,,,CBAS0006,1,2025-02-25_09h36.59.257,ObjectScenePairTask_local_study2,2024.1.4,None,2025-02-25 09h39.52.805180 -0500,
instructions/Slide005.jpeg,study/imagelist_object_study1.xlsx,study/images/Obj34_1.jpeg,2.6610683635905685,num_8,0,0,0,0,0,2,2,0,0,8,8,4,292.3497999450001,,,,,,,,,,,,,,292.336468342,292.3497999450001,295.0256816340002,295.0029490390002,295.00298272400005,295.0256816340002,295.0256816340002,215.90072642899986,298.01780751800015,None,0,,,,,,,,,,,,,,,,,,,,,,CBAS0006,1,2025-02-25_09h36.59.257,ObjectScenePairTask_local_study2,2024.1.4,None,2025-02-25 09h39.52.805180 -0500,
instructions/Slide005.jpeg,study/imagelist_object_study1.xlsx,study/images/Obj48_1.jpeg,2.074681191184287,num_8,0,0,0,0,0,2,2,0,0,9,9,13,298.03144446900023,,,,,,,,,,,,,,298.01883590299985,298.03144446900023,300.12149362399987,300.099011154,300.09904399100014,300.12149362399987,300.12149362399987,220.996627387,303.1036654909999,num_5,0,0.0942684750002627,0.1680348929999127,,,,,,,,,,,,,,,,,,,,CBAS0006,1,2025-02-25_09h36.59.257,ObjectScenePairTask_local_study2,2024.1.4,None,2025-02-25 09h39.52.805180 -0500,
instructions/Slide005.jpeg,study/imagelist_object_study1.xlsx,study/images/Obj8_1.jpeg,2.819414737607065,num_5,0,0,0,0,0,2,2,0,0,10,10,10,303.1138107390002,,,,,,,,,,,,,,303.1051952500002,303.1138107390002,305.939067929,305.917191817,305.91723923100017,305.939067929,305.939067929,226.81442041699984,308.93233908799994,num_5,1,1.204686037999636,0.24830426000016814,,,,,,,,,,,,,,,,,,,,CBAS0006,1,2025-02-25_09h36.59.257,ObjectScenePairTask_local_study2,2024.1.4,None,2025-02-25 09h39.52.805180 -0500,
instructions/Slide005.jpeg,study/imagelist_object_study1.xlsx,study/images/Obj7_1.jpeg,1.6252859280785785,num_5,0,0,0,0,0,2,2,0,0,11,11,8,308.9481844910001,,,,,,,,,,,,,,308.93387161400005,308.9481844910001,310.58267405800007,310.56273052899996,310.5627640480002,310.58267405800007,310.58267405800007,231.45781204100012,313.5630224679999,num_5,1,1.1691459300000133,0.23202514600006907,,,,,,,,,,,,,,,,,,,,CBAS0006,1,2025-02-25_09h36.59.257,ObjectScenePairTask_local_study2,2024.1.4,None,2025-02-25 09h39.52.805180 -0500,
instructions/Slide005.jpeg,study/imagelist_object_study1.xlsx,study/images/Obj41_1.jpeg,1.6864489169387133,num_5,0,0,0,0,0,2,2,0,0,12,12,0,313.58007549600006,,,,,,,,,,,,,,313.564280737,313.58007549600006,315.28688452999995,315.26434882600006,315.2643823080002,315.28688452999995,315.28688452999995,236.16221868699995,318.2650985129999,num_5,1,0.7449388710001585,0.18393166299983932,,,,,,,,,,,,,,,,,,,,CBAS0006,1,2025-02-25_09h36.59.257,ObjectScenePairTask_local_study2,2024.1.4,None,2025-02-25 09h39.52.805180 -0500,
instructions/Slide005.jpeg,study/imagelist_object_study1.xlsx,study/images/Obj86_1.jpeg,2.0442657882184316,num_8,0,0,0,0,0,2,2,0,0,13,13,2,318.2761698200002,,,,,,,,,,,,,,318.2657504849999,318.2761698200002,320.3321867559998,320.3102059349999,320.310319402,320.3321867559998,320.3321867559998,241.2073201520002,323.31074881799987,None,0,,,,,,,,,,,,,,,,,,,,,,CBAS0006,1,2025-02-25_09h36.59.257,ObjectScenePairTask_local_study2,2024.1.4,None,2025-02-25 09h39.52.805180 -0500,
instructions/Slide005.jpeg,study/imagelist_object_study1.xlsx,,,,0,0,0,0,0,2,2,0,,,,,,,,,,,,,,,,,,,,,,,,,,,,,,,,,,,,,,,,,,,,,,,,,,,CBAS0006,1,2025-02-25_09h36.59.257,ObjectScenePairTask_local_study2,2024.1.4,None,2025-02-25 09h39.52.805180 -0500,
instructions/Slide006.jpeg,study/imagelist_pair_study9.xlsx,study/images/Pair138_1.jpeg,1.1221654901278264,num_5,0,0,0,0,0,3,3,1,0,0,0,7,334.1242035539999,,,,,,323.3599154479998,323.39348439800006,323.39348439800006,334.106580098,254.98077446700017,3,10.704768598999635,None,334.11793843199985,334.1242035539999,335.2673776920001,335.24219183800005,335.24224077100007,335.2673776920001,335.2673776920001,256.142515733,338.25628750900023,num_5,1,2.8044098049999775,None,,,,,,,,,,,,,,,,,,,,CBAS0006,1,2025-02-25_09h36.59.257,ObjectScenePairTask_local_study2,2024.1.4,None,2025-02-25 09h39.52.805180 -0500,
instructions/Slide006.jpeg,study/imagelist_pair_study9.xlsx,study/images/Pair131_1.jpeg,2.4663644954099095,num_8,0,0,0,0,0,3,3,1,0,1,1,2,338.2709575429999,,,,,,,,,,,,,,338.257051217,338.2709575429999,340.75395676900007,340.72440417100006,340.7244523899999,340.75395676900007,340.75395676900007,261.62896274800005,343.7265142209999,num_5,0,1.2698552860001655,0.4800836499998695,,,,,,,,,,,,,,,,,,,,CBAS0006,1,2025-02-25_09h36.59.257,ObjectScenePairTask_local_study2,2024.1.4,None,2025-02-25 09h39.52.805180 -0500,
instructions/Slide006.jpeg,study/imagelist_pair_study9.xlsx,study/images/Pair143_1.jpeg,1.8759712206592578,num_5,0,0,0,0,0,3,3,1,0,2,2,11,343.7362240140001,,,,,,,,,,,,,,343.727124561,343.7362240140001,345.61900494400015,345.60269266600017,345.6027127850002,345.61900494400015,345.61900494400015,266.4939936229998,348.602729706,None,0,,,348.60914698900024,348.60914698900024,,,,,,,,,,,,,,,,,,CBAS0006,1,2025-02-25_09h36.59.257,ObjectScenePairTask_local_study2,2024.1.4,None,2025-02-25 09h39.52.805180 -0500,
instructions/Slide006.jpeg,study/imagelist_pair_study9.xlsx,study/images/Pair136_1.jpeg,1.3028896342976468,num_5,0,0,0,0,0,3,3,1,0,3,3,5,348.60914698900024,,,,,,,,,,,,,,348.60352857,348.60914698900024,349.93009210499986,349.902359146,349.9023919279998,349.93009210499986,349.93009210499986,270.805157452,352.9066764449999,None,0,,,,,,,,,,,,,,,,,,,,,,CBAS0006,1,2025-02-25_09h36.59.257,ObjectScenePairTask_local_study2,2024.1.4,None,2025-02-25 09h39.52.805180 -0500,
instructions/Slide006.jpeg,study/imagelist_pair_study9.xlsx,study/images/Pair130_1.jpeg,2.16779269020644,num_5,0,0,0,0,0,3,3,1,0,4,4,1,352.9164128130001,,,,,,,,,,,,,,352.90784504600015,352.9164128130001,355.091299576,355.06806314999994,355.0680955560001,355.091299576,355.091299576,275.9665558669999,358.08484771700023,None,0,,,,,,,,,,,,,,,,,,,,,,CBAS0006,1,2025-02-25_09h36.59.257,ObjectScenePairTask_local_study2,2024.1.4,None,2025-02-25 09h39.52.805180 -0500,
instructions/Slide006.jpeg,study/imagelist_pair_study9.xlsx,study/images/Pair139_1.jpeg,1.6978845582859572,num_8,0,0,0,0,0,3,3,1,0,5,5,8,358.100947077,,,,,,,,,,,,,,358.0860678250001,358.100947077,359.8102325630002,359.78353870699993,359.7835880890002,359.8102325630002,359.8102325630002,280.685299364,362.7868090820002,None,0,,,,,,,,,,,,,,,,,,,,,,CBAS0006,1,2025-02-25_09h36.59.257,ObjectScenePairTask_local_study2,2024.1.4,None,2025-02-25 09h39.52.805180 -0500,
instructions/Slide006.jpeg,study/imagelist_pair_study9.xlsx,study/images/Pair141_1.jpeg,2.4669518091313556,num_8,0,0,0,0,0,3,3,1,0,6,6,9,362.7973040840002,,,,,,,,,,,,,,362.787712328,362.7973040840002,365.2766231790001,365.2489595070001,365.24900080999987,365.2766231790001,365.2766231790001,286.1515133040002,368.25211474800017,num_5,0,2.131252713000322,0.3279545089999374,,,,,,,,,,,,,,,,,,,,CBAS0006,1,2025-02-25_09h36.59.257,ObjectScenePairTask_local_study2,2024.1.4,None,2025-02-25 09h39.52.805180 -0500,
instructions/Slide006.jpeg,study/imagelist_pair_study9.xlsx,study/images/Pair135_1.jpeg,1.267307814364041,num_5,0,0,0,0,0,3,3,1,0,7,7,4,368.26253447399995,,,,,,,,,,,,,,368.2536172949999,368.26253447399995,369.539082281,369.5150516100002,369.5150845060002,369.539082281,369.539082281,290.41417449100027,372.5315612059999,num_5,1,1.196736270999736,None,,,,,,,,,,,,,,,,,,,,CBAS0006,1,2025-02-25_09h36.59.257,ObjectScenePairTask_local_study2,2024.1.4,None,2025-02-25 09h39.52.805180 -0500,
instructions/Slide006.jpeg,study/imagelist_pair_study9.xlsx,study/images/Pair144_1.jpeg,1.4744743226508013,num_5,0,0,0,0,0,3,3,1,0,8,8,12,372.54754895899987,,,,,,,,,,,,,,372.5332021049999,372.54754895899987,374.04281334899997,374.0148740720001,374.01490851200015,374.04281334899997,374.04281334899997,294.91786405899984,377.0273800330001,None,0,,,,,,,,,,,,,,,,,,,,,,CBAS0006,1,2025-02-25_09h36.59.257,ObjectScenePairTask_local_study2,2024.1.4,None,2025-02-25 09h39.52.805180 -0500,
instructions/Slide006.jpeg,study/imagelist_pair_study9.xlsx,study/images/Pair129_1.jpeg,1.8570570536892308,num_8,0,0,0,0,0,3,3,1,0,9,9,0,377.035049266,,,,,,,,,,,,,,377.02778893699997,377.035049266,378.907462657,378.880300971,378.8803355539999,378.907462657,378.907462657,299.7825479070002,381.8953588549998,num_5,0,1.2363504250001824,0.31231831200011584,,,,,,,,,,,,,,,,,,,,CBAS0006,1,2025-02-25_09h36.59.257,ObjectScenePairTask_local_study2,2024.1.4,None,2025-02-25 09h39.52.805180 -0500,
instructions/Slide006.jpeg,study/imagelist_pair_study9.xlsx,study/images/Pair132_1.jpeg,1.3007566664388521,num_5,0,0,0,0,0,3,3,1,0,10,10,3,381.91192236999996,,,,,,,,,,,,,,381.89690949199985,381.91192236999996,383.23906602499983,383.21282827100003,383.2128770559998,383.23906602499983,383.23906602499983,304.1143148350002,386.2277375489998,num_5,1,2.5366667879998204,0.23205232500004058,,,,,,,,,,,,,,,,,,,,CBAS0006,1,2025-02-25_09h36.59.257,ObjectScenePairTask_local_study2,2024.1.4,None,2025-02-25 09h39.52.805180 -0500,
instructions/Slide006.jpeg,study/imagelist_pair_study9.xlsx,study/images/Pair137_1.jpeg,1.9273402975504907,num_5,0,0,0,0,0,3,3,1,0,11,11,6,386.2434341889998,,,,,,,,,,,,,,386.2290042569998,386.2434341889998,388.1717146679998,388.1576328719998,388.1576487020002,388.1717146679998,388.1717146679998,309.0465369849999,391.15751123100017,num_5,1,2.700170330000219,0.24818341999980476,391.16306555500023,391.16306555500023,,,,,,,,,,,,,,,,,,CBAS0006,1,2025-02-25_09h36.59.257,ObjectScenePairTask_local_study2,2024.1.4,None,2025-02-25 09h39.52.805180 -0500,
instructions/Slide006.jpeg,study/imagelist_pair_study9.xlsx,study/images/Pair146_1.jpeg,1.5010439063024898,num_5,0,0,0,0,0,3,3,1,0,12,12,13,391.16306555500023,,,,,,,,,,,,,,391.15809300699993,391.16306555500023,392.68823192399987,392.65995143400005,392.6600146820001,392.68823192399987,392.68823192399987,313.56331907799995,395.67306955699996,num_5,1,1.8236440020000373,0.11186555299991596,,,,,,,,,,,,,,,,,,,,CBAS0006,1,2025-02-25_09h36.59.257,ObjectScenePairTask_local_study2,2024.1.4,None,2025-02-25 09h39.52.805180 -0500,
instructions/Slide006.jpeg,study/imagelist_pair_study9.xlsx,study/images/Pair142_1.jpeg,2.202981077852,num_5,0,0,0,0,0,3,3,1,0,13,13,10,395.68127857399986,,,,,,,,,,,,,,395.674432412,395.68127857399986,397.905463564,397.8755353350002,397.8756345380002,397.905463564,397.905463564,318.780744486,400.8901375270002,num_5,1,1.4623168009998153,0.28804812999987917,,,,,,,,,,,,,,,,,,,,CBAS0006,1,2025-02-25_09h36.59.257,ObjectScenePairTask_local_study2,2024.1.4,None,2025-02-25 09h39.52.805180 -0500,
instructions/Slide006.jpeg,study/imagelist_pair_study9.xlsx,,,,0,0,0,0,0,3,3,1,,,,,,,,,,,,,,,,,,,,,,,,,,,,,,,,,,,,,,,,,,,,,,,,,,,CBAS0006,1,2025-02-25_09h36.59.257,ObjectScenePairTask_local_study2,2024.1.4,None,2025-02-25 09h39.52.805180 -0500,
,,,,,0,0,0,0,,,,,,,,,,,,,,,,,,,,,,,,,,,,,,,,,,,,,,400.9959586109999,401.00123562299996,402.87427754300006,479.9234439070001,space,77.04343493700026,None,479.92389138,479.93230820200006,481.923177658,489.20203619899985,num_divide,7.276507062000292,None,,,,CBAS0006,1,2025-02-25_09h36.59.257,ObjectScenePairTask_local_study2,2024.1.4,None,2025-02-25 09h39.52.805180 -0500,
instructions/Slide004.jpeg,study/imagelist_scene_study1.xlsx,study/images/Scn11_1.jpeg,2.979794145098646,num_5,1,0,1,0,0,0,0,0,0,0,0,10,498.3819099379998,,,,,,489.20931976500015,489.2400668,489.2400668,498.3626679859999,9.160292818000016,num_2,9.11980252300009,None,498.3739259959998,498.3819099379998,501.3755932690001,501.346806775,501.34684113699996,501.3755932690001,501.3755932690001,12.174208186000214,504.3617235239999,num_5,1,2.680625880000207,None,,,,,,,,,,,,,,,,,,,,CBAS0006,1,2025-02-25_09h36.59.257,ObjectScenePairTask_local_study2,2024.1.4,None,2025-02-25 09h39.52.805180 -0500,
instructions/Slide004.jpeg,study/imagelist_scene_study1.xlsx,study/images/Scn5_1.jpeg,2.2424091766929752,num_5,1,0,1,0,0,0,0,0,0,1,1,4,504.3787791059999,,,,,,,,,,,,,,504.3633950819999,504.3787791059999,506.64080656900023,506.6126037859999,506.6126548870002,506.64080656900023,506.64080656900023,17.439551715000107,509.6130224950002,num_5,1,2.847197142999903,None,,,,,,,,,,,,,,,,,,,,CBAS0006,1,2025-02-25_09h36.59.257,ObjectScenePairTask_local_study2,2024.1.4,None,2025-02-25 09h39.52.805180 -0500,
instructions/Slide004.jpeg,study/imagelist_scene_study1.xlsx,study/images/Scn10_1.jpeg,1.8452153533254747,num_8,1,0,1,0,0,0,0,0,0,2,2,9,509.6256572520001,,,,,,,,,,,,,,509.6139477759998,509.6256572520001,511.4861127029999,511.4614318419999,511.46148166600005,511.4861127029999,511.4861127029999,22.28497080599982,514.4754569430002,None,0,,,,,,,,,,,,,,,,,,,,,,CBAS0006,1,2025-02-25_09h36.59.257,ObjectScenePairTask_local_study2,2024.1.4,None,2025-02-25 09h39.52.805180 -0500,
instructions/Slide004.jpeg,study/imagelist_scene_study1.xlsx,study/images/Scn7_1.jpeg,2.2458250898919214,num_5,1,0,1,0,0,0,0,0,0,3,3,6,514.4924786000001,,,,,,,,,,,,,,514.4763397719998,514.4924786000001,516.7491271889999,516.7256749170001,516.7257096540002,516.7491271889999,516.7491271889999,27.547705764000057,519.7409286090001,num_5,1,1.69897543199977,0.4797819530003835,,,,,,,,,,,,,,,,,,,,CBAS0006,1,2025-02-25_09h36.59.257,ObjectScenePairTask_local_study2,2024.1.4,None,2025-02-25 09h39.52.805180 -0500,
instructions/Slide004.jpeg,study/imagelist_scene_study1.xlsx,study/images/Scn1_1.jpeg,1.4592308148670208,num_8,1,0,1,0,0,0,0,0,0,4,4,0,519.7575430299999,,,,,,,,,,,,,,519.7419693090001,519.7575430299999,521.2348745160002,521.2089034139999,521.2089534259999,521.2348745160002,521.2348745160002,32.03346455400015,524.2215501340002,None,0,,,,,,,,,,,,,,,,,,,,,,CBAS0006,1,2025-02-25_09h36.59.257,ObjectScenePairTask_local_study2,2024.1.4,None,2025-02-25 09h39.52.805180 -0500,
instructions/Slide004.jpeg,study/imagelist_scene_study1.xlsx,study/images/Scn8_1.jpeg,2.912883501085258,num_5,1,0,1,0,0,0,0,0,0,5,5,7,524.2295753150001,,,,,,,,,,,,,,524.2227125139998,524.2295753150001,527.1656502169999,527.1403718739998,527.14042436,527.1656502169999,527.1656502169999,37.964558361999934,530.1553182709999,num_5,1,1.1541065290002734,0.3123810819997743,,,,,,,,,,,,,,,,,,,,CBAS0006,1,2025-02-25_09h36.59.257,ObjectScenePairTask_local_study2,2024.1.4,None,2025-02-25 09h39.52.805180 -0500,
instructions/Slide004.jpeg,study/imagelist_scene_study1.xlsx,study/images/Scn6_1.jpeg,2.4448943426720913,num_8,1,0,1,0,0,0,0,0,0,6,6,5,530.1710798560002,,,,,,,,,,,,,,530.156892769,530.1710798560002,532.6331881599999,532.6052876839999,532.605322071,532.6331881599999,532.6331881599999,43.43197419799981,535.608027108,None,0,,,,,,,,,,,,,,,,,,,,,,CBAS0006,1,2025-02-25_09h36.59.257,ObjectScenePairTask_local_study2,2024.1.4,None,2025-02-25 09h39.52.805180 -0500,
instructions/Slide004.jpeg,study/imagelist_scene_study1.xlsx,study/images/Scn9_1.jpeg,1.5974611704171884,num_8,1,0,1,0,0,0,0,0,0,7,7,8,535.619552616,,,,,,,,,,,,,,535.6089680089999,535.619552616,537.232019307,537.2045491839999,537.20459858,537.232019307,537.232019307,48.03089373900002,540.209127784,None,0,,,,,,,,,,,,,,,,,,,,,,CBAS0006,1,2025-02-25_09h36.59.257,ObjectScenePairTask_local_study2,2024.1.4,None,2025-02-25 09h39.52.805180 -0500,
instructions/Slide004.jpeg,study/imagelist_scene_study1.xlsx,study/images/Scn68_1.jpeg,1.011906950047151,num_5,1,0,1,0,0,0,0,0,0,8,8,13,540.2161350760002,,,,,,,,,,,,,,540.209866705,540.2161350760002,541.249367595,541.2196237409999,541.219672014,541.249367595,541.249367595,52.048403190000045,544.2215382949998,num_5,1,1.5423390989999461,0.26395555299995976,,,,,,,,,,,,,,,,,,,,CBAS0006,1,2025-02-25_09h36.59.257,ObjectScenePairTask_local_study2,2024.1.4,None,2025-02-25 09h39.52.805180 -0500,
instructions/Slide004.jpeg,study/imagelist_scene_study1.xlsx,study/images/Scn4_1.jpeg,2.665644129022879,num_8,1,0,1,0,0,0,0,0,0,9,9,3,544.2312815380001,,,,,,,,,,,,,,544.223211387,544.2312815380001,546.906305948,546.8826487609999,546.882682294,546.906305948,546.906305948,57.705031897000026,549.8989029079999,None,0,,,,,,,,,,,,,,,,,,,,,,CBAS0006,1,2025-02-25_09h36.59.257,ObjectScenePairTask_local_study2,2024.1.4,None,2025-02-25 09h39.52.805180 -0500,
instructions/Slide004.jpeg,study/imagelist_scene_study1.xlsx,study/images/Scn2_1.jpeg,2.9605550363282713,num_5,1,0,1,0,0,0,0,0,0,10,10,1,549.9131750010001,,,,,,,,,,,,,,549.8997280220001,549.9131750010001,552.892878829,552.8641539690002,552.8641880999999,552.892878829,552.892878829,63.69176657300022,555.867711418,num_5,1,1.610896030999811,0.32798836100027984,,,,,,,,,,,,,,,,,,,,CBAS0006,1,2025-02-25_09h36.59.257,ObjectScenePairTask_local_study2,2024.1.4,None,2025-02-25 09h39.52.805180 -0500,
instructions/Slide004.jpeg,study/imagelist_scene_study1.xlsx,study/images/Scn90_1.jpeg,2.0458608920489585,num_5,1,0,1,0,0,0,0,0,0,11,11,11,555.8781587879998,,,,,,,,,,,,,,555.8682478700002,555.8781587879998,557.925704368,557.9117141239999,557.9117299049999,557.925704368,557.925704368,68.72398963400019,560.9132393650002,num_5,1,1.138094743000238,0.35193752999975914,,,,,,,,,,,,,,,,,,,,CBAS0006,1,2025-02-25_09h36.59.257,ObjectScenePairTask_local_study2,2024.1.4,None,2025-02-25 09h39.52.805180 -0500,
instructions/Slide004.jpeg,study/imagelist_scene_study1.xlsx,study/images/Scn3_1.jpeg,1.4200276633905813,num_5,1,0,1,0,0,0,0,0,0,12,12,2,560.9269245700002,,,,,,,,,,,,,,560.9144859749999,560.9269245700002,562.355048287,562.3340856119999,562.334119783,562.355048287,562.355048287,73.15379180899981,565.3427386530002,num_5,1,1.0127404499999102,0.3520564360001117,,,,,,,,,,,,,,,,,,,,CBAS0006,1,2025-02-25_09h36.59.257,ObjectScenePairTask_local_study2,2024.1.4,None,2025-02-25 09h39.52.805180 -0500,
instructions/Slide004.jpeg,study/imagelist_scene_study1.xlsx,study/images/Scn33_1.jpeg,2.646920948258333,num_8,1,0,1,0,0,0,0,0,0,13,13,12,565.348395641,,,,,,,,,,,,,,565.343561227,565.348395641,568.007941929,567.9796248970001,567.9796411890002,568.007941929,568.007941929,78.80644925200022,570.9944271959998,None,0,,,,,,,,,,,,,,,,,,,,,,CBAS0006,1,2025-02-25_09h36.59.257,ObjectScenePairTask_local_study2,2024.1.4,None,2025-02-25 09h39.52.805180 -0500,
instructions/Slide004.jpeg,study/imagelist_scene_study1.xlsx,,,,1,0,1,0,0,0,0,0,,,,,,,,,,,,,,,,,,,,,,,,,,,,,,,,,,,,,,,,,,,,,,,,,,,CBAS0006,1,2025-02-25_09h36.59.257,ObjectScenePairTask_local_study2,2024.1.4,None,2025-02-25 09h39.52.805180 -0500,
instructions/Slide006.jpeg,study/imagelist_pair_study11.xlsx,study/images/Pair168_1.jpeg,1.173442917264184,num_8,1,0,1,0,0,1,1,1,0,0,0,6,579.9388449799999,,,,,,571.082531685,571.1113412549998,571.1113412549998,579.9241336059999,90.72176078600023,num_2,8.800497118999829,None,579.9311701820002,579.9388449799999,581.1309860629999,581.106837331,581.1068722139998,581.1309860629999,581.1309860629999,91.9299564150001,584.1116183700001,None,0,,,,,,,,,,,,,,,,,,,,,,CBAS0006,1,2025-02-25_09h36.59.257,ObjectScenePairTask_local_study2,2024.1.4,None,2025-02-25 09h39.52.805180 -0500,
instructions/Slide006.jpeg,study/imagelist_pair_study11.xlsx,study/images/Pair174_1.jpeg,1.8382490531511533,num_5,1,0,1,0,0,1,1,1,0,1,1,12,584.121003146,,,,,,,,,,,,,,584.1126554060002,584.121003146,585.9841596169999,585.957537108,585.9575701889999,585.9841596169999,585.9841596169999,96.78283170600025,588.9725010540001,num_5,1,2.5676844750000782,0.32800189599993246,,,,,,,,,,,,,,,,,,,,CBAS0006,1,2025-02-25_09h36.59.257,ObjectScenePairTask_local_study2,2024.1.4,None,2025-02-25 09h39.52.805180 -0500,
instructions/Slide006.jpeg,study/imagelist_pair_study11.xlsx,study/images/Pair173_1.jpeg,2.780774248516312,num_8,1,0,1,0,0,1,1,1,0,2,2,11,588.9885368959999,,,,,,,,,,,,,,588.974792729,588.9885368959999,591.7854286400002,591.7566784219998,591.7567304119998,591.7854286400002,591.7854286400002,102.58391679299984,594.757320745,num_5,0,2.7504051040000377,0.18400547400005962,,,,,,,,,,,,,,,,,,,,CBAS0006,1,2025-02-25_09h36.59.257,ObjectScenePairTask_local_study2,2024.1.4,None,2025-02-25 09h39.52.805180 -0500,
instructions/Slide006.jpeg,study/imagelist_pair_study11.xlsx,study/images/Pair167_1.jpeg,2.8685145737115563,num_8,1,0,1,0,0,1,1,1,0,3,3,5,594.76824584,,,,,,,,,,,,,,594.7580120399998,594.76824584,597.6489093270002,597.6217172860001,597.6217672900002,597.6489093270002,597.6489093270002,108.44777430800013,600.636108145,None,0,,,,,,,,,,,,,,,,,,,,,,CBAS0006,1,2025-02-25_09h36.59.257,ObjectScenePairTask_local_study2,2024.1.4,None,2025-02-25 09h39.52.805180 -0500,
instructions/Slide006.jpeg,study/imagelist_pair_study11.xlsx,study/images/Pair172_1.jpeg,2.11533208787524,num_5,1,0,1,0,0,1,1,1,0,4,4,10,600.6522405569999,,,,,,,,,,,,,,600.6373344580002,600.6522405569999,602.779207824,602.7572377870001,602.7572656830002,602.779207824,602.779207824,113.57803818599996,605.7681875960002,num_5,1,2.0686235039997882,0.31234697499985487,,,,,,,,,,,,,,,,,,,,CBAS0006,1,2025-02-25_09h36.59.257,ObjectScenePairTask_local_study2,2024.1.4,None,2025-02-25 09h39.52.805180 -0500,
instructions/Slide006.jpeg,study/imagelist_pair_study11.xlsx,study/images/Pair163_1.jpeg,1.5833466290123772,num_8,1,0,1,0,0,1,1,1,0,5,5,1,605.7846232749998,,,,,,,,,,,,,,605.7697377579998,605.7846232749998,607.386747513,607.3571699019999,607.3572129419999,607.386747513,607.386747513,118.185508002,610.363055328,None,0,,,,,,,,,,,,,,,,,,,,,,CBAS0006,1,2025-02-25_09h36.59.257,ObjectScenePairTask_local_study2,2024.1.4,None,2025-02-25 09h39.52.805180 -0500,
instructions/Slide006.jpeg,study/imagelist_pair_study11.xlsx,study/images/Pair165_1.jpeg,1.894062171401448,num_8,1,0,1,0,0,1,1,1,0,6,6,3,610.3682512649998,,,,,,,,,,,,,,610.3638190350002,610.3682512649998,612.2686245509999,612.2481795690001,612.2482140010002,612.2686245509999,612.2686245509999,123.06762809300017,615.26243832,None,0,,,,,,,,,,,,,,,,,,,,,,CBAS0006,1,2025-02-25_09h36.59.257,ObjectScenePairTask_local_study2,2024.1.4,None,2025-02-25 09h39.52.805180 -0500,
instructions/Slide006.jpeg,study/imagelist_pair_study11.xlsx,study/images/Pair164_1.jpeg,2.4851098593847283,num_5,1,0,1,0,0,1,1,1,0,7,7,2,615.2704618160001,,,,,,,,,,,,,,615.2639852759999,615.2704618160001,617.772976409,617.7469037259998,617.7469579919998,617.772976409,617.772976409,128.5717992310001,620.750929245,num_5,1,1.2348872940001456,0.3519456290000562,,,,,,,,,,,,,,,,,,,,CBAS0006,1,2025-02-25_09h36.59.257,ObjectScenePairTask_local_study2,2024.1.4,None,2025-02-25 09h39.52.805180 -0500,
instructions/Slide006.jpeg,study/imagelist_pair_study11.xlsx,study/images/Pair169_1.jpeg,2.1692303678682285,num_5,1,0,1,0,0,1,1,1,0,8,8,7,620.7606357969998,,,,,,,,,,,,,,620.7524759930002,620.7606357969998,622.9384710009999,622.9178476299999,622.9178814430002,622.9384710009999,622.9384710009999,133.7374142130002,625.9287872690002,None,0,,,,,,,,,,,,,,,,,,,,,,CBAS0006,1,2025-02-25_09h36.59.257,ObjectScenePairTask_local_study2,2024.1.4,None,2025-02-25 09h39.52.805180 -0500,
instructions/Slide006.jpeg,study/imagelist_pair_study11.xlsx,study/images/Pair162_1.jpeg,2.294769015338935,num_8,1,0,1,0,0,1,1,1,0,9,9,0,625.942666159,,,,,,,,,,,,,,625.9299969819999,625.942666159,628.250232378,628.2273412170002,628.2273862259999,628.250232378,628.250232378,139.04889084900014,631.2443167890001,None,0,,,,,,,,,,,,,,,,,,,,,,CBAS0006,1,2025-02-25_09h36.59.257,ObjectScenePairTask_local_study2,2024.1.4,None,2025-02-25 09h39.52.805180 -0500,
instructions/Slide006.jpeg,study/imagelist_pair_study11.xlsx,study/images/Pair166_1.jpeg,1.0493363639874003,num_5,1,0,1,0,0,1,1,1,0,10,10,4,631.2609746120002,,,,,,,,,,,,,,631.2454202009999,631.2609746120002,632.3158405600002,632.3000871250001,632.3001070189998,632.3158405600002,632.3158405600002,143.1145823239999,635.310063548,None,0,,,,,,,,,,,,,,,,,,,,,,CBAS0006,1,2025-02-25_09h36.59.257,ObjectScenePairTask_local_study2,2024.1.4,None,2025-02-25 09h39.52.805180 -0500,
instructions/Slide006.jpeg,study/imagelist_pair_study11.xlsx,study/images/Pair171_1.jpeg,1.1816541998218038,num_5,1,0,1,0,0,1,1,1,0,11,11,9,635.3264784329999,,,,,,,,,,,,,,635.3112973789998,635.3264784329999,636.5200353949999,636.4941346649998,636.4941688059998,636.5200353949999,636.5200353949999,147.31882747999998,639.5089946590001,num_5,1,2.4800332810000327,0.3117954079998526,,,,,,,,,,,,,,,,,,,,CBAS0006,1,2025-02-25_09h36.59.257,ObjectScenePairTask_local_study2,2024.1.4,None,2025-02-25 09h39.52.805180 -0500,
instructions/Slide006.jpeg,study/imagelist_pair_study11.xlsx,study/images/Pair175_1.jpeg,1.0496567313234664,num_5,1,0,1,0,0,1,1,1,0,12,12,13,639.5232228049999,,,,,,,,,,,,,,639.5102923240001,639.5232228049999,640.583542153,640.5598688129999,640.5599019360002,640.583542153,640.583542153,151.38245756700007,643.5744960249999,num_5,1,1.7683746580000843,0.3518875210002079,,,,,,,,,,,,,,,,,,,,CBAS0006,1,2025-02-25_09h36.59.257,ObjectScenePairTask_local_study2,2024.1.4,None,2025-02-25 09h39.52.805180 -0500,
instructions/Slide006.jpeg,study/imagelist_pair_study11.xlsx,study/images/Pair170_1.jpeg,1.3740176277462717,num_5,1,0,1,0,0,1,1,1,0,13,13,8,643.590441287,,,,,,,,,,,,,,643.5758573090002,643.590441287,644.988065559,644.958233804,644.9582681239999,644.988065559,644.988065559,155.78710151699988,647.9714888180001,num_5,1,1.955741407000005,0.3279743780003628,,,,,,,,,,,,,,,,,,,,CBAS0006,1,2025-02-25_09h36.59.257,ObjectScenePairTask_local_study2,2024.1.4,None,2025-02-25 09h39.52.805180 -0500,
instructions/Slide006.jpeg,study/imagelist_pair_study11.xlsx,,,,1,0,1,0,0,1,1,1,,,,,,,,,,,,,,,,,,,,,,,,,,,,,,,,,,,,,,,,,,,,,,,,,,,CBAS0006,1,2025-02-25_09h36.59.257,ObjectScenePairTask_local_study2,2024.1.4,None,2025-02-25 09h39.52.805180 -0500,
instructions/Slide006.jpeg,study/imagelist_pair_study10.xlsx,study/images/Pair151_1.jpeg,1.8973620186789388,num_8,1,0,1,0,0,2,2,2,0,0,0,4,655.439978113,,,,,,648.0282626160001,648.060102894,648.060102894,655.4224403359999,166.22006536400022,3,7.358654178999586,None,655.4335792380002,655.439978113,657.3481893889998,657.3217786549999,657.3218144020002,657.3481893889998,657.3481893889998,168.14702872099997,660.3362192690001,None,0,,,,,,,,,,,,,,,,,,,,,,CBAS0006,1,2025-02-25_09h36.59.257,ObjectScenePairTask_local_study2,2024.1.4,None,2025-02-25 09h39.52.805180 -0500,
instructions/Slide006.jpeg,study/imagelist_pair_study10.xlsx,study/images/Pair150_1.jpeg,2.789048224283121,num_8,1,0,1,0,0,2,2,2,0,1,1,3,660.352759931,,,,,,,,,,,,,,660.337292875,660.352759931,663.16541026,663.136860265,663.136910834,663.16541026,663.16541026,173.964249527,666.151557355,None,0,,,,,,,,,,,,,,,,,,,,,,CBAS0006,1,2025-02-25_09h36.59.257,ObjectScenePairTask_local_study2,2024.1.4,None,2025-02-25 09h39.52.805180 -0500,
instructions/Slide006.jpeg,study/imagelist_pair_study10.xlsx,study/images/Pair160_1.jpeg,2.2079954343734567,num_5,1,0,1,0,0,2,2,2,0,2,2,12,666.166991181,,,,,,,,,,,,,,666.153170912,666.166991181,668.3918267230001,668.3663876820001,668.36642244,668.3918267230001,668.3918267230001,179.19086506500025,671.369314476,num_5,1,2.5280136660003336,0.3919049239998458,,,,,,,,,,,,,,,,,,,,CBAS0006,1,2025-02-25_09h36.59.257,ObjectScenePairTask_local_study2,2024.1.4,None,2025-02-25 09h39.52.805180 -0500,
instructions/Slide006.jpeg,study/imagelist_pair_study10.xlsx,study/images/Pair157_1.jpeg,1.3635603328301809,num_5,1,0,1,0,0,2,2,2,0,3,3,9,671.380416982,,,,,,,,,,,,,,671.3702486050001,671.380416982,672.755372612,672.7321387400002,672.7321720650002,672.755372612,672.755372612,183.55445583600022,675.747089165,None,0,,,,,,,,,,,,,,,,,,,,,,CBAS0006,1,2025-02-25_09h36.59.257,ObjectScenePairTask_local_study2,2024.1.4,None,2025-02-25 09h39.52.805180 -0500,
instructions/Slide006.jpeg,study/imagelist_pair_study10.xlsx,study/images/Pair147_1.jpeg,2.9770602157760075,num_8,1,0,1,0,0,2,2,2,0,4,4,0,675.7545475020002,,,,,,,,,,,,,,675.7483036510002,675.7545475020002,678.7423207400002,678.716133245,678.7161842710002,678.7423207400002,678.7423207400002,189.54104799700008,681.7177041959999,None,0,,,,,,,,,,,,,,,,,,,,,,CBAS0006,1,2025-02-25_09h36.59.257,ObjectScenePairTask_local_study2,2024.1.4,None,2025-02-25 09h39.52.805180 -0500,
instructions/Slide006.jpeg,study/imagelist_pair_study10.xlsx,study/images/Pair148_1.jpeg,1.0016078969912114,num_5,1,0,1,0,0,2,2,2,0,5,5,1,681.728108371,,,,,,,,,,,,,,681.7189196939999,681.728108371,682.7405184479999,682.718726996,682.718760234,682.7405184479999,682.7405184479999,193.5392388629998,685.7270300929999,None,0,,,,,,,,,,,,,,,,,,,,,,CBAS0006,1,2025-02-25_09h36.59.257,ObjectScenePairTask_local_study2,2024.1.4,None,2025-02-25 09h39.52.805180 -0500,
instructions/Slide006.jpeg,study/imagelist_pair_study10.xlsx,study/images/Pair154_1.jpeg,1.4821163158894488,num_5,1,0,1,0,0,2,2,2,0,6,6,7,685.733738547,,,,,,,,,,,,,,685.7278779439998,685.733738547,687.217069589,687.200542396,687.20056075,687.217069589,687.217069589,198.0154319530002,690.2087985150001,num_5,1,2.59080358600022,0.207989052999892,,,,,,,,,,,,,,,,,,,,CBAS0006,1,2025-02-25_09h36.59.257,ObjectScenePairTask_local_study2,2024.1.4,None,2025-02-25 09h39.52.805180 -0500,
instructions/Slide006.jpeg,study/imagelist_pair_study10.xlsx,study/images/Pair155_1.jpeg,1.4944444883141237,num_5,1,0,1,0,0,2,2,2,0,7,7,8,690.2165584230002,,,,,,,,,,,,,,690.2103420479998,690.2165584230002,691.7231169890001,691.6999396360002,691.6999742739999,691.7231169890001,691.7231169890001,202.52201437299982,694.7101688789999,None,0,,,,,,,,,,,,,,,,,,,,,,CBAS0006,1,2025-02-25_09h36.59.257,ObjectScenePairTask_local_study2,2024.1.4,None,2025-02-25 09h39.52.805180 -0500,
instructions/Slide006.jpeg,study/imagelist_pair_study10.xlsx,study/images/Pair153_1.jpeg,1.344843379149973,num_8,1,0,1,0,0,2,2,2,0,8,8,6,694.7262205040001,,,,,,,,,,,,,,694.7112378759998,694.7262205040001,696.0867032609999,696.0609194419999,696.060954086,696.0867032609999,696.0867032609999,206.88597922200006,699.0761131200002,None,0,,,,,,,,,,,,,,,,,,,,,,CBAS0006,1,2025-02-25_09h36.59.257,ObjectScenePairTask_local_study2,2024.1.4,None,2025-02-25 09h39.52.805180 -0500,
instructions/Slide006.jpeg,study/imagelist_pair_study10.xlsx,study/images/Pair152_1.jpeg,1.3138766854112118,num_5,1,0,1,0,0,2,2,2,0,9,9,5,699.0921532520001,,,,,,,,,,,,,,699.0773648509999,699.0921532520001,700.4198858350001,700.3931910860001,700.393224337,700.4198858350001,700.4198858350001,211.21861234100015,703.408611111,num_5,1,1.3322383559998343,0.3517206609999448,,,,,,,,,,,,,,,,,,,,CBAS0006,1,2025-02-25_09h36.59.257,ObjectScenePairTask_local_study2,2024.1.4,None,2025-02-25 09h39.52.805180 -0500,
instructions/Slide006.jpeg,study/imagelist_pair_study10.xlsx,study/images/Pair149_1.jpeg,2.0298057403252328,num_8,1,0,1,0,0,2,2,2,0,10,10,2,703.4246682990001,,,,,,,,,,,,,,703.4101562760002,703.4246682990001,705.4640668369998,705.4417431510001,705.4417775229999,705.4640668369998,705.4640668369998,216.262944909,708.4562248400002,num_5,0,2.3598983100000623,0.1038629800000308,,,,,,,,,,,,,,,,,,,,CBAS0006,1,2025-02-25_09h36.59.257,ObjectScenePairTask_local_study2,2024.1.4,None,2025-02-25 09h39.52.805180 -0500,
instructions/Slide006.jpeg,study/imagelist_pair_study10.xlsx,study/images/Pair158_1.jpeg,1.1885527912926754,num_5,1,0,1,0,0,2,2,2,0,11,11,10,708.4728934710001,,,,,,,,,,,,,,708.4572971490002,708.4728934710001,709.6814983539998,709.657098702,709.65714333,709.6814983539998,709.6814983539998,220.48062947400012,712.6698183180001,num_5,1,1.7982500339999206,0.08802137400016363,,,,,,,,,,,,,,,,,,,,CBAS0006,1,2025-02-25_09h36.59.257,ObjectScenePairTask_local_study2,2024.1.4,None,2025-02-25 09h39.52.805180 -0500,
instructions/Slide006.jpeg,study/imagelist_pair_study10.xlsx,study/images/Pair159_1.jpeg,2.2660221942817618,num_5,1,0,1,0,0,2,2,2,0,12,12,11,712.6784029260002,,,,,,,,,,,,,,712.6705397320002,712.6784029260002,714.9651620210002,714.9393074939999,714.9393518759998,714.9651620210002,714.9651620210002,225.7642637009999,717.9541279979999,num_5,1,1.3065557899999476,0.4320567569998275,,,,,,,,,,,,,,,,,,,,CBAS0006,1,2025-02-25_09h36.59.257,ObjectScenePairTask_local_study2,2024.1.4,None,2025-02-25 09h39.52.805180 -0500,
instructions/Slide006.jpeg,study/imagelist_pair_study10.xlsx,study/images/Pair161_1.jpeg,1.191726874290812,num_5,1,0,1,0,0,2,2,2,0,13,13,13,717.970525399,,,,,,,,,,,,,,717.9561953309999,717.970525399,719.1775744880001,719.1549468379999,719.1549937489999,719.1775744880001,719.1775744880001,229.9767065699998,722.169936112,num_5,1,1.9262237870002537,0.3440985729998829,,,,,,,,,,,,,,,,,,,,CBAS0006,1,2025-02-25_09h36.59.257,ObjectScenePairTask_local_study2,2024.1.4,None,2025-02-25 09h39.52.805180 -0500,
instructions/Slide006.jpeg,study/imagelist_pair_study10.xlsx,,,,1,0,1,0,0,2,2,2,,,,,,,,,,,,,,,,,,,,,,,,,,,,,,,,,,,,,,,,,,,,,,,,,,,CBAS0006,1,2025-02-25_09h36.59.257,ObjectScenePairTask_local_study2,2024.1.4,None,2025-02-25 09h39.52.805180 -0500,
instructions/Slide006.jpeg,study/imagelist_pair_study2.xlsx,study/images/Pair24_1.jpeg,1.1438424012364035,num_8,1,0,1,0,0,3,3,3,0,0,0,7,731.4337825520001,,,,,,722.2453137389998,722.2719244109999,722.2719244109999,731.4160350319999,242.2136602300002,3,9.141851814000347,None,731.4260912569998,731.4337825520001,732.5935168199999,732.5680515130002,732.5680855589999,732.5935168199999,732.5935168199999,243.39284037100015,735.582779162,None,0,,,,,,,,,,,,,,,,,,,,,,CBAS0006,1,2025-02-25_09h36.59.257,ObjectScenePairTask_local_study2,2024.1.4,None,2025-02-25 09h39.52.805180 -0500,
instructions/Slide006.jpeg,study/imagelist_pair_study2.xlsx,study/images/Pair23_1.jpeg,2.721811315864961,num_5,1,0,1,0,0,3,3,3,0,1,1,6,735.5986713389998,,,,,,,,,,,,,,735.5843820069999,735.5986713389998,738.3354089720001,738.3138757930001,738.3139050220002,738.3354089720001,738.3354089720001,249.13421183399987,741.3184884900002,None,0,,,,,,,,,,,,,,,,,,,,,,CBAS0006,1,2025-02-25_09h36.59.257,ObjectScenePairTask_local_study2,2024.1.4,None,2025-02-25 09h39.52.805180 -0500,
instructions/Slide006.jpeg,study/imagelist_pair_study2.xlsx,study/images/Pair18_1.jpeg,2.1498634517127395,num_5,1,0,1,0,0,3,3,3,0,2,2,1,741.327515168,,,,,,,,,,,,,,741.3193738049999,741.327515168,743.4859113759999,743.4626673739999,743.4626951199998,743.4859113759999,743.4859113759999,254.2851246979999,746.4658976720002,num_5,1,2.6578147029999855,None,,,,,,,,,,,,,,,,,,,,CBAS0006,1,2025-02-25_09h36.59.257,ObjectScenePairTask_local_study2,2024.1.4,None,2025-02-25 09h39.52.805180 -0500,
instructions/Slide006.jpeg,study/imagelist_pair_study2.xlsx,study/images/Pair19_1.jpeg,1.9844068606522853,num_5,1,0,1,0,0,3,3,3,0,3,3,2,746.4769192949998,,,,,,,,,,,,,,746.466900759,746.4769192949998,748.4730782880001,748.447350168,748.4473856170002,748.4730782880001,748.4730782880001,259.271919197,751.4590058190001,num_5,1,3.5699473459999354,-2.963214381999933,,,,,,,,,,,,,,,,,,,,CBAS0006,1,2025-02-25_09h36.59.257,ObjectScenePairTask_local_study2,2024.1.4,None,2025-02-25 09h39.52.805180 -0500,
instructions/Slide006.jpeg,study/imagelist_pair_study2.xlsx,study/images/Pair16_1.jpeg,2.2676970908964007,num_5,1,0,1,0,0,3,3,3,0,4,4,0,751.4669377330001,,,,,,,,,,,,,,751.4606824379998,751.4669377330001,753.7523368279999,753.7264798810002,753.7265144060002,753.7523368279999,753.7523368279999,264.55152716400016,756.7304672300002,None,0,,,,,,,,,,,,,,,,,,,,,,CBAS0006,1,2025-02-25_09h36.59.257,ObjectScenePairTask_local_study2,2024.1.4,None,2025-02-25 09h39.52.805180 -0500,
instructions/Slide006.jpeg,study/imagelist_pair_study2.xlsx,study/images/Pair20_1.jpeg,1.1482335280017675,num_5,1,0,1,0,0,3,3,3,0,5,5,3,756.74031173,,,,,,,,,,,,,,756.7316820249998,756.74031173,757.9040694710002,757.8781670869998,757.8782178669999,757.9040694710002,757.9040694710002,268.70349960500016,760.8928111099999,num_5,1,1.615719700000227,0.35190672899989295,,,,,,,,,,,,,,,,,,,,CBAS0006,1,2025-02-25_09h36.59.257,ObjectScenePairTask_local_study2,2024.1.4,None,2025-02-25 09h39.52.805180 -0500,
instructions/Slide006.jpeg,study/imagelist_pair_study2.xlsx,study/images/Pair27_1.jpeg,1.0339377735042414,num_8,1,0,1,0,0,3,3,3,0,6,6,10,760.9087814479999,,,,,,,,,,,,,,760.8940848819998,760.9087814479999,761.9449798679998,761.9289476210001,761.928968105,761.9449798679998,761.9449798679998,272.743547089,764.941880974,num_5,0,1.9107541820003462,0.4560768090000238,,,,,,,,,,,,,,,,,,,,CBAS0006,1,2025-02-25_09h36.59.257,ObjectScenePairTask_local_study2,2024.1.4,None,2025-02-25 09h39.52.805180 -0500,
instructions/Slide006.jpeg,study/imagelist_pair_study2.xlsx,study/images/Pair21_1.jpeg,2.890029927110654,num_5,1,0,1,0,0,3,3,3,0,7,7,4,764.955905493,,,,,,,,,,,,,,764.9433965160001,764.955905493,767.8690195489999,767.8420978150002,767.8421330159999,767.8690195489999,767.8690195489999,278.667859874,770.8452029370001,None,0,,,,,,,,,,,,,,,,,,,,,,CBAS0006,1,2025-02-25_09h36.59.257,ObjectScenePairTask_local_study2,2024.1.4,None,2025-02-25 09h39.52.805180 -0500,
instructions/Slide006.jpeg,study/imagelist_pair_study2.xlsx,study/images/Pair28_1.jpeg,2.619760485863384,num_5,1,0,1,0,0,3,3,3,0,8,8,11,770.870257135,,,,,,,,,,,,,,770.846426691,770.870257135,773.4955296439998,773.4770184670001,773.4770397130001,773.4955296439998,773.4955296439998,284.29440130500006,776.488282157,None,0,,,,,,,,,,,,,,,,,,,,,,CBAS0006,1,2025-02-25_09h36.59.257,ObjectScenePairTask_local_study2,2024.1.4,None,2025-02-25 09h39.52.805180 -0500,
instructions/Slide006.jpeg,study/imagelist_pair_study2.xlsx,study/images/Pair25_1.jpeg,2.784182157568866,num_8,1,0,1,0,0,3,3,3,0,9,9,8,776.5047352830002,,,,,,,,,,,,,,776.4891065289999,776.5047352830002,779.3106841829999,779.2891134470001,779.2891574670002,779.3106841829999,779.3106841829999,290.1091708570002,782.2902680030002,None,0,,,,,,,,,,,,,,,,,,,,,,CBAS0006,1,2025-02-25_09h36.59.257,ObjectScenePairTask_local_study2,2024.1.4,None,2025-02-25 09h39.52.805180 -0500,
instructions/Slide006.jpeg,study/imagelist_pair_study2.xlsx,study/images/Pair26_1.jpeg,2.464365328784731,num_8,1,0,1,0,0,3,3,3,0,10,10,9,782.3022811280002,,,,,,,,,,,,,,782.2911874840001,782.3022811280002,784.7744020609998,784.7538766030002,784.7539121479999,784.7744020609998,784.7744020609998,295.57365988699985,787.7683708579998,num_5,0,2.2654033759999948,0.3280238729998928,,,,,,,,,,,,,,,,,,,,CBAS0006,1,2025-02-25_09h36.59.257,ObjectScenePairTask_local_study2,2024.1.4,None,2025-02-25 09h39.52.805180 -0500,
instructions/Slide006.jpeg,study/imagelist_pair_study2.xlsx,study/images/Pair22_1.jpeg,1.8305568269052053,num_5,1,0,1,0,0,3,3,3,0,11,11,5,787.784706249,,,,,,,,,,,,,,787.7696415959999,787.784706249,789.627140608,789.6007504610002,789.6007949509999,789.627140608,789.627140608,300.4264110570002,792.6171370279999,num_5,1,1.2126374479998958,0.39201634599976387,,,,,,,,,,,,,,,,,,,,CBAS0006,1,2025-02-25_09h36.59.257,ObjectScenePairTask_local_study2,2024.1.4,None,2025-02-25 09h39.52.805180 -0500,
instructions/Slide006.jpeg,study/imagelist_pair_study2.xlsx,study/images/Pair29_1.jpeg,2.6380517043701035,num_5,1,0,1,0,0,3,3,3,0,12,12,12,792.6326189299998,,,,,,,,,,,,,,792.618391775,792.6326189299998,795.2763993859999,795.2545632440001,795.2545982850002,795.2763993859999,795.2763993859999,306.07559410500016,798.2648746179998,num_5,1,2.851426404999984,None,,,,,,,,,,,,,,,,,,,,CBAS0006,1,2025-02-25_09h36.59.257,ObjectScenePairTask_local_study2,2024.1.4,None,2025-02-25 09h39.52.805180 -0500,
instructions/Slide006.jpeg,study/imagelist_pair_study2.xlsx,study/images/Pair31_1.jpeg,2.503697394949908,num_8,1,0,1,0,0,3,3,3,0,13,13,13,798.2795450130002,,,,,,,,,,,,,,798.2659560349998,798.2795450130002,800.8137065380001,800.7835117899999,800.7835647789998,800.8137065380001,800.8137065380001,311.6126613460001,803.7948707370001,None,0,,,,,,,,,,,,,,,,,,,,,,CBAS0006,1,2025-02-25_09h36.59.257,ObjectScenePairTask_local_study2,2024.1.4,None,2025-02-25 09h39.52.805180 -0500,
instructions/Slide006.jpeg,study/imagelist_pair_study2.xlsx,,,,1,0,1,0,0,3,3,3,,,,,,,,,,,,,,,,,,,,,,,,,,,,,,,,,,,,,,,,,,,,,,,,,,,CBAS0006,1,2025-02-25_09h36.59.257,ObjectScenePairTask_local_study2,2024.1.4,None,2025-02-25 09h39.52.805180 -0500,
,,,,,1,0,1,0,,,,,,,,,,,,,,,,,,,,,,,,,,,,,,,,,,,,,,803.9318693360001,803.9360995960001,805.777492021,854.1904443009998,space,48.409391434999634,None,854.1907253590002,854.197784898,856.1818186750002,856.1829885359998,num_divide,28.382238543999847,None,,,,CBAS0006,1,2025-02-25_09h36.59.257,ObjectScenePairTask_local_study2,2024.1.4,None,2025-02-25 09h39.52.805180 -0500,
instructions/Slide006.jpeg,study/imagelist_pair_study6.xlsx,study/images/Pair80_1.jpeg,2.248853795878892,num_8,2,0,2,0,0,0,0,1,0,0,0,0,861.8501500359998,,,,,,856.1904468299999,856.2205052680001,856.2205052680001,861.8334438689999,5.650229366000076,num_2,5.60329445599973,None,861.8421554820002,861.8501500359998,864.1246671180002,864.0990770779999,864.099110701,864.1246671180002,864.1246671180002,7.943314997000016,867.1130769790002,None,0,,,,,,,,,,,,,,,,,,,,,,CBAS0006,1,2025-02-25_09h36.59.257,ObjectScenePairTask_local_study2,2024.1.4,None,2025-02-25 09h39.52.805180 -0500,
instructions/Slide006.jpeg,study/imagelist_pair_study6.xlsx,study/images/Pair95_1.jpeg,2.388442862894903,num_5,2,0,2,0,0,0,0,1,0,1,1,13,867.1270555249998,,,,,,,,,,,,,,867.1141915409999,867.1270555249998,869.5229628910001,869.5011711910001,869.5012044330001,869.5229628910001,869.5229628910001,13.341214748999846,872.5084750350002,None,0,,,,,,,,,,,,,,,,,,,,,,CBAS0006,1,2025-02-25_09h36.59.257,ObjectScenePairTask_local_study2,2024.1.4,None,2025-02-25 09h39.52.805180 -0500,
instructions/Slide006.jpeg,study/imagelist_pair_study6.xlsx,study/images/Pair93_1.jpeg,2.20797013273944,num_8,2,0,2,0,0,0,0,1,0,2,2,11,872.5158628620002,,,,,,,,,,,,,,872.5097575959999,872.5158628620002,874.7319945230001,874.7106910749999,874.7107264430001,874.7319945230001,874.7319945230001,18.5502844749999,877.7119104919998,None,0,,,,,,,,,,,,,,,,,,,,,,CBAS0006,1,2025-02-25_09h36.59.257,ObjectScenePairTask_local_study2,2024.1.4,None,2025-02-25 09h39.52.805180 -0500,
instructions/Slide006.jpeg,study/imagelist_pair_study6.xlsx,study/images/Pair83_1.jpeg,2.5125858753391563,num_5,2,0,2,0,0,0,0,1,0,3,3,3,877.7238408389999,,,,,,,,,,,,,,877.7123988210001,877.7238408389999,880.2503583600001,880.2254802850002,880.2255088699999,880.2503583600001,880.2503583600001,24.068654918999982,883.2278637,num_5,1,1.3894036469996536,0.39202507100026196,,,,,,,,,,,,,,,,,,,,CBAS0006,1,2025-02-25_09h36.59.257,ObjectScenePairTask_local_study2,2024.1.4,None,2025-02-25 09h39.52.805180 -0500,
instructions/Slide006.jpeg,study/imagelist_pair_study6.xlsx,study/images/Pair86_1.jpeg,2.261223958425652,num_5,2,0,2,0,0,0,0,1,0,4,4,5,883.2387583089999,,,,,,,,,,,,,,883.2284718569999,883.2387583089999,885.5145463650001,885.4911156799999,885.491149942,885.5145463650001,885.5145463650001,29.333055451999826,888.4916283960001,num_5,1,1.3892633870000282,0.391981253999802,,,,,,,,,,,,,,,,,,,,CBAS0006,1,2025-02-25_09h36.59.257,ObjectScenePairTask_local_study2,2024.1.4,None,2025-02-25 09h39.52.805180 -0500,
instructions/Slide006.jpeg,study/imagelist_pair_study6.xlsx,study/images/Pair94_1.jpeg,2.3354264680906205,num_5,2,0,2,0,0,0,0,1,0,5,5,12,888.5082311790002,,,,,,,,,,,,,,888.4929147890002,888.5082311790002,890.8694430639998,890.8423125210002,890.8423481720001,890.8694430639998,890.8694430639998,34.68790210599991,893.8553355099998,num_5,1,2.3626536520000627,0.3357108929999413,,,,,,,,,,,,,,,,,,,,CBAS0006,1,2025-02-25_09h36.59.257,ObjectScenePairTask_local_study2,2024.1.4,None,2025-02-25 09h39.52.805180 -0500,
instructions/Slide006.jpeg,study/imagelist_pair_study6.xlsx,study/images/Pair81_1.jpeg,2.7823712310570343,num_8,2,0,2,0,0,0,0,1,0,6,6,1,893.8726698380001,,,,,,,,,,,,,,893.8571428730002,893.8726698380001,896.6672869889999,896.6412296090002,896.6412741529998,896.6672869889999,896.6672869889999,40.48545104100003,899.642198607,num_5,0,1.9564832649998607,0.3039872670001387,,,,,,,,,,,,,,,,,,,,CBAS0006,1,2025-02-25_09h36.59.257,ObjectScenePairTask_local_study2,2024.1.4,None,2025-02-25 09h39.52.805180 -0500,
instructions/Slide006.jpeg,study/imagelist_pair_study6.xlsx,study/images/Pair88_1.jpeg,1.3977136091525129,num_8,2,0,2,0,0,0,0,1,0,7,7,7,899.6517458160001,,,,,,,,,,,,,,899.6433080870002,899.6517458160001,901.0604698980001,901.0369510380001,901.0369862090001,901.0604698980001,901.0604698980001,44.87902196599998,904.0531640130002,None,0,,,,,,,,,,,,,,,,,,,,,,CBAS0006,1,2025-02-25_09h36.59.257,ObjectScenePairTask_local_study2,2024.1.4,None,2025-02-25 09h39.52.805180 -0500,
instructions/Slide006.jpeg,study/imagelist_pair_study6.xlsx,study/images/Pair87_1.jpeg,1.736147772261182,num_5,2,0,2,0,0,0,0,1,0,8,8,6,904.0679934919999,,,,,,,,,,,,,,904.0539977970002,904.0679934919999,905.8335866860002,905.8047897490001,905.8048394379998,905.8335866860002,905.8335866860002,49.651549736000106,908.819293391,num_5,1,1.1104495899999165,0.3679536750000807,,,,,,,,,,,,,,,,,,,,CBAS0006,1,2025-02-25_09h36.59.257,ObjectScenePairTask_local_study2,2024.1.4,None,2025-02-25 09h39.52.805180 -0500,
instructions/Slide006.jpeg,study/imagelist_pair_study6.xlsx,study/images/Pair92_1.jpeg,2.6901919010241953,num_5,2,0,2,0,0,0,0,1,0,9,9,10,908.835663033,,,,,,,,,,,,,,908.820730417,908.835663033,911.5464130660002,911.5193557980001,911.5193928240001,911.5464130660002,911.5464130660002,55.364711068999895,914.5216886630001,num_5,1,2.3174310320000586,0.39998693400002594,,,,,,,,,,,,,,,,,,,,CBAS0006,1,2025-02-25_09h36.59.257,ObjectScenePairTask_local_study2,2024.1.4,None,2025-02-25 09h39.52.805180 -0500,
instructions/Slide006.jpeg,study/imagelist_pair_study6.xlsx,study/images/Pair91_1.jpeg,1.5678488695014063,num_5,2,0,2,0,0,0,0,1,0,10,10,9,914.5309219430001,,,,,,,,,,,,,,914.5222632200002,914.5309219430001,916.1057257900002,916.0856864289999,916.0857294840002,916.1057257900002,916.1057257900002,59.923475557000074,919.0988336609998,num_5,1,2.142072595999707,0.33599234000030265,,,,,,,,,,,,,,,,,,,,CBAS0006,1,2025-02-25_09h36.59.257,ObjectScenePairTask_local_study2,2024.1.4,None,2025-02-25 09h39.52.805180 -0500,
instructions/Slide006.jpeg,study/imagelist_pair_study6.xlsx,study/images/Pair82_1.jpeg,2.4405576108855787,num_8,2,0,2,0,0,0,0,1,0,11,11,2,919.1151817619998,,,,,,,,,,,,,,919.0998635790002,919.1151817619998,921.5778087819999,921.5504381649998,921.5504718870002,921.5778087819999,921.5778087819999,65.39620974799982,924.5646822600002,None,0,,,,,,,,,,,,,,,,,,,,,,CBAS0006,1,2025-02-25_09h36.59.257,ObjectScenePairTask_local_study2,2024.1.4,None,2025-02-25 09h39.52.805180 -0500,
instructions/Slide006.jpeg,study/imagelist_pair_study6.xlsx,study/images/Pair84_1.jpeg,1.7410435719352793,num_5,2,0,2,0,0,0,0,1,0,12,12,4,924.5807612459998,,,,,,,,,,,,,,924.5658830739999,924.5807612459998,926.3391337130001,926.3164268529999,926.316477418,926.3391337130001,926.3391337130001,70.15775809900015,929.330054259,None,0,,,,,,,,,,,,,,,,,,,,,,CBAS0006,1,2025-02-25_09h36.59.257,ObjectScenePairTask_local_study2,2024.1.4,None,2025-02-25 09h39.52.805180 -0500,
instructions/Slide006.jpeg,study/imagelist_pair_study6.xlsx,study/images/Pair89_1.jpeg,2.4882607195069966,num_5,2,0,2,0,0,0,0,1,0,13,13,8,929.3436024120001,,,,,,,,,,,,,,929.3313058180001,929.3436024120001,931.8433775150002,931.818951065,931.818978885,931.8433775150002,931.8433775150002,75.66165784099985,934.827976301,None,0,,,,,,,,,,,,,,,,,,,,,,CBAS0006,1,2025-02-25_09h36.59.257,ObjectScenePairTask_local_study2,2024.1.4,None,2025-02-25 09h39.52.805180 -0500,
instructions/Slide006.jpeg,study/imagelist_pair_study6.xlsx,,,,2,0,2,0,0,0,0,1,,,,,,,,,,,,,,,,,,,,,,,,,,,,,,,,,,,,,,,,,,,,,,,,,,,CBAS0006,1,2025-02-25_09h36.59.257,ObjectScenePairTask_local_study2,2024.1.4,None,2025-02-25 09h39.52.805180 -0500,
instructions/Slide006.jpeg,study/imagelist_pair_study4.xlsx,study/images/Pair58_1.jpeg,2.987180154192538,num_8,2,0,2,0,0,1,1,2,0,0,0,8,991.2530516209999,,,,,,934.913812533,934.9422442109999,934.9422442109999,991.2357661720002,135.0525537909998,3,56.28990995000004,None,991.2468209409999,991.2530516209999,994.2541339099998,994.2303341709999,994.2303705680001,994.2541339099998,994.2541339099998,138.07282263700017,997.2419943290001,None,0,,,,,,,,,,,,,,,,,,,,,,CBAS0006,1,2025-02-25_09h36.59.257,ObjectScenePairTask_local_study2,2024.1.4,None,2025-02-25 09h39.52.805180 -0500,
instructions/Slide006.jpeg,study/imagelist_pair_study4.xlsx,study/images/Pair62_1.jpeg,2.2405655062607823,num_5,2,0,2,0,0,1,1,2,0,1,1,12,997.249705403,,,,,,,,,,,,,,997.2435000539999,997.249705403,999.4976522219999,999.476314684,999.4763434770002,999.4976522219999,999.4976522219999,143.31587353099985,1002.4778142380001,None,0,,,,,,,,,,,,,,,,,,,,,,CBAS0006,1,2025-02-25_09h36.59.257,ObjectScenePairTask_local_study2,2024.1.4,None,2025-02-25 09h39.52.805180 -0500,
instructions/Slide006.jpeg,study/imagelist_pair_study4.xlsx,study/images/Pair56_1.jpeg,1.7135944798671228,num_5,2,0,2,0,0,1,1,2,0,2,2,6,1002.4892329959998,,,,,,,,,,,,,,1002.4783236960002,1002.4892329959998,1004.2034517420002,1004.190477828,1004.1904975769999,1004.2034517420002,1004.2034517420002,148.0213997599999,1007.190886376,None,0,,,1007.1975469969998,1007.1975469969998,,,,,,,,,,,,,,,,,,CBAS0006,1,2025-02-25_09h36.59.257,ObjectScenePairTask_local_study2,2024.1.4,None,2025-02-25 09h39.52.805180 -0500,
instructions/Slide006.jpeg,study/imagelist_pair_study4.xlsx,study/images/Pair60_1.jpeg,2.3616266470281175,num_8,2,0,2,0,0,1,1,2,0,3,3,10,1007.1975469969998,,,,,,,,,,,,,,1007.191691081,1007.1975469969998,1009.5694890710001,1009.5475482100001,1009.5475763899999,1009.5694890710001,1009.5694890710001,153.38768660100004,1012.5551936030001,None,0,,,,,,,,,,,,,,,,,,,,,,CBAS0006,1,2025-02-25_09h36.59.257,ObjectScenePairTask_local_study2,2024.1.4,None,2025-02-25 09h39.52.805180 -0500,
instructions/Slide006.jpeg,study/imagelist_pair_study4.xlsx,study/images/Pair59_1.jpeg,1.0468617737380652,num_5,2,0,2,0,0,1,1,2,0,4,4,9,1012.5618202820001,,,,,,,,,,,,,,1012.5560288370002,1012.5618202820001,1013.6334911680001,1013.6084664330001,1013.6085024489998,1013.6334911680001,1013.6334911680001,157.45194705799986,1016.6204042039999,None,0,,,,,,,,,,,,,,,,,,,,,,CBAS0006,1,2025-02-25_09h36.59.257,ObjectScenePairTask_local_study2,2024.1.4,None,2025-02-25 09h39.52.805180 -0500,
instructions/Slide006.jpeg,study/imagelist_pair_study4.xlsx,study/images/Pair49_1.jpeg,1.459276813997128,num_8,2,0,2,0,0,1,1,2,0,5,5,0,1016.6291589110001,,,,,,,,,,,,,,1016.6219686469999,1016.6291589110001,1018.1006956000001,1018.0743994240001,1018.0744342920002,1018.1006956000001,1018.1006956000001,161.91955786100016,1021.0882833690002,None,0,,,,,,,,,,,,,,,,,,,,,,CBAS0006,1,2025-02-25_09h36.59.257,ObjectScenePairTask_local_study2,2024.1.4,None,2025-02-25 09h39.52.805180 -0500,
instructions/Slide006.jpeg,study/imagelist_pair_study4.xlsx,study/images/Pair57_1.jpeg,2.806917035215074,num_5,2,0,2,0,0,1,1,2,0,6,6,7,1021.10455822,,,,,,,,,,,,,,1021.0895166760001,1021.10455822,1023.9339293040002,1023.905814151,1023.9058497030001,1023.9339293040002,1023.9339293040002,167.75272720800012,1026.919840212,None,0,,,,,,,,,,,,,,,,,,,,,,CBAS0006,1,2025-02-25_09h36.59.257,ObjectScenePairTask_local_study2,2024.1.4,None,2025-02-25 09h39.52.805180 -0500,
instructions/Slide006.jpeg,study/imagelist_pair_study4.xlsx,study/images/Pair50_1.jpeg,1.5324537083022354,num_5,2,0,2,0,0,1,1,2,0,7,7,1,1026.936395493,,,,,,,,,,,,,,1026.920709725,1026.936395493,1028.4760083,1028.4550243580002,1028.4550602610002,1028.4760083,1028.4760083,172.29434621100017,1031.4576227399998,None,0,,,,,,,,,,,,,,,,,,,,,,CBAS0006,1,2025-02-25_09h36.59.257,ObjectScenePairTask_local_study2,2024.1.4,None,2025-02-25 09h39.52.805180 -0500,
instructions/Slide006.jpeg,study/imagelist_pair_study4.xlsx,study/images/Pair61_1.jpeg,1.9606165807946805,num_8,2,0,2,0,0,1,1,2,0,8,8,11,1031.46624156,,,,,,,,,,,,,,1031.458460233,1031.46624156,1033.4469501889998,1033.4206091679998,1033.4206443829999,1033.4469501889998,1033.4469501889998,177.26543187700008,1036.431255766,None,0,,,,,,,,,,,,,,,,,,,,,,CBAS0006,1,2025-02-25_09h36.59.257,ObjectScenePairTask_local_study2,2024.1.4,None,2025-02-25 09h39.52.805180 -0500,
instructions/Slide006.jpeg,study/imagelist_pair_study4.xlsx,study/images/Pair63_1.jpeg,1.5149555740026475,num_8,2,0,2,0,0,1,1,2,0,9,9,13,1036.4356919430002,,,,,,,,,,,,,,1036.4316492560001,1036.4356919430002,1037.963302921,1037.9356005539998,1037.9356215849998,1037.963302921,1037.963302921,181.78098173399985,1040.945866164,None,0,,,,,,,,,,,,,,,,,,,,,,CBAS0006,1,2025-02-25_09h36.59.257,ObjectScenePairTask_local_study2,2024.1.4,None,2025-02-25 09h39.52.805180 -0500,
instructions/Slide006.jpeg,study/imagelist_pair_study4.xlsx,study/images/Pair54_1.jpeg,2.299673166864247,num_5,2,0,2,0,0,1,1,2,0,10,10,4,1040.9502521919999,,,,,,,,,,,,,,1040.946363987,1040.9502521919999,1043.272077133,1043.2492031289999,1043.2492384450002,1043.272077133,1043.272077133,187.09076814599985,1046.2647820809998,None,0,,,,,,,,,,,,,,,,,,,,,,CBAS0006,1,2025-02-25_09h36.59.257,ObjectScenePairTask_local_study2,2024.1.4,None,2025-02-25 09h39.52.805180 -0500,
instructions/Slide006.jpeg,study/imagelist_pair_study4.xlsx,study/images/Pair55_1.jpeg,1.7329028308820267,num_8,2,0,2,0,0,1,1,2,0,11,11,5,1046.2819800910002,,,,,,,,,,,,,,1046.2658571289999,1046.2819800910002,1048.0252658529998,1047.999098284,1047.999131081,1048.0252658529998,1048.0252658529998,191.84369315899994,1051.013510495,None,0,,,,,,,,,,,,,,,,,,,,,,CBAS0006,1,2025-02-25_09h36.59.257,ObjectScenePairTask_local_study2,2024.1.4,None,2025-02-25 09h39.52.805180 -0500,
instructions/Slide006.jpeg,study/imagelist_pair_study4.xlsx,study/images/Pair51_1.jpeg,2.5939764443228244,num_8,2,0,2,0,0,1,1,2,0,12,12,2,1051.0297018249998,,,,,,,,,,,,,,1051.014584783,1051.0297018249998,1053.6438851829998,1053.6119620059999,1053.6119912109998,1053.6438851829998,1053.6438851829998,197.4626584560001,1056.628777804,None,0,,,,,,,,,,,,,,,,,,,,,,CBAS0006,1,2025-02-25_09h36.59.257,ObjectScenePairTask_local_study2,2024.1.4,None,2025-02-25 09h39.52.805180 -0500,
instructions/Slide006.jpeg,study/imagelist_pair_study4.xlsx,study/images/Pair53_1.jpeg,1.8501914242769322,num_5,2,0,2,0,0,1,1,2,0,13,13,3,1056.64572916,,,,,,,,,,,,,,1056.6298324690001,1056.64572916,1058.5115532720001,1058.484789349,1058.4848317639999,1058.5115532720001,1058.5115532720001,202.3301908640001,1061.4915261649999,None,0,,,,,,,,,,,,,,,,,,,,,,CBAS0006,1,2025-02-25_09h36.59.257,ObjectScenePairTask_local_study2,2024.1.4,None,2025-02-25 09h39.52.805180 -0500,
instructions/Slide006.jpeg,study/imagelist_pair_study4.xlsx,,,,2,0,2,0,0,1,1,2,,,,,,,,,,,,,,,,,,,,,,,,,,,,,,,,,,,,,,,,,,,,,,,,,,,CBAS0006,1,2025-02-25_09h36.59.257,ObjectScenePairTask_local_study2,2024.1.4,None,2025-02-25 09h39.52.805180 -0500,
instructions/Slide004.jpeg,study/imagelist_scene_study2.xlsx,study/images/Scn18_1.jpeg,1.5925371758923854,num_8,2,0,2,0,0,2,2,0,0,0,0,5,1073.9233856710002,,,,,,1061.5724566019999,1061.597887672,1061.597887672,1073.906021361,217.72280813299994,3,12.303599320000103,None,1073.9170609460002,1073.9233856710002,1075.534081667,1075.505555313,1075.505584252,1075.534081667,1075.534081667,219.35271979400022,1078.5098214549998,None,0,,,,,,,,,,,,,,,,,,,,,,CBAS0006,1,2025-02-25_09h36.59.257,ObjectScenePairTask_local_study2,2024.1.4,None,2025-02-25 09h39.52.805180 -0500,
instructions/Slide004.jpeg,study/imagelist_scene_study2.xlsx,study/images/Scn71_1.jpeg,1.9534244001438452,num_5,2,0,2,0,0,2,2,0,0,1,1,4,1078.520047475,,,,,,,,,,,,,,1078.510750889,1078.520047475,1080.484022472,1080.461206306,1080.461232961,1080.484022472,1080.484022472,224.30249409099997,1083.4713964950001,None,0,,,,,,,,,,,,,,,,,,,,,,CBAS0006,1,2025-02-25_09h36.59.257,ObjectScenePairTask_local_study2,2024.1.4,None,2025-02-25 09h39.52.805180 -0500,
instructions/Slide004.jpeg,study/imagelist_scene_study2.xlsx,study/images/Scn96_1.jpeg,1.0769624510798668,num_8,2,0,2,0,0,2,2,0,0,2,2,1,1083.48762854,,,,,,,,,,,,,,1083.4724456560002,1083.48762854,1084.5862506510002,1084.5568911629998,1084.5569437190002,1084.5862506510002,1084.5862506510002,228.40472402700016,1087.5570819099999,None,0,,,,,,,,,,,,,,,,,,,,,,CBAS0006,1,2025-02-25_09h36.59.257,ObjectScenePairTask_local_study2,2024.1.4,None,2025-02-25 09h39.52.805180 -0500,
instructions/Slide004.jpeg,study/imagelist_scene_study2.xlsx,study/images/Scn88_1.jpeg,2.0271516148674253,num_5,2,0,2,0,0,2,2,0,0,3,3,13,1087.5676751810001,,,,,,,,,,,,,,1087.5577238720002,1087.5676751810001,1089.6118495760002,1089.5858229649998,1089.5858518640002,1089.6118495760002,1089.6118495760002,233.4303139990002,1092.5910561290002,None,0,,,,,,,,,,,,,,,,,,,,,,CBAS0006,1,2025-02-25_09h36.59.257,ObjectScenePairTask_local_study2,2024.1.4,None,2025-02-25 09h39.52.805180 -0500,
instructions/Slide004.jpeg,study/imagelist_scene_study2.xlsx,study/images/Scn13_1.jpeg,1.8126297244666327,num_8,2,0,2,0,0,2,2,0,0,4,4,0,1092.5994846940002,,,,,,,,,,,,,,1092.591935934,1092.5994846940002,1094.4301736749999,1094.4035176779998,1094.403554203,1094.4301736749999,1094.4301736749999,238.24856185,1097.4053748229999,None,0,,,,,,,,,,,,,,,,,,,,,,CBAS0006,1,2025-02-25_09h36.59.257,ObjectScenePairTask_local_study2,2024.1.4,None,2025-02-25 09h39.52.805180 -0500,
instructions/Slide004.jpeg,study/imagelist_scene_study2.xlsx,study/images/Scn45_1.jpeg,2.2617332075251584,num_8,2,0,2,0,0,2,2,0,0,5,5,12,1097.415120442,,,,,,,,,,,,,,1097.406264973,1097.415120442,1099.691718005,1099.6667801039998,1099.666816373,1099.691718005,1099.691718005,243.51054802599992,1102.6825873389998,None,0,,,,,,,,,,,,,,,,,,,,,,CBAS0006,1,2025-02-25_09h36.59.257,ObjectScenePairTask_local_study2,2024.1.4,None,2025-02-25 09h39.52.805180 -0500,
instructions/Slide004.jpeg,study/imagelist_scene_study2.xlsx,study/images/Scn15_1.jpeg,1.6826961828446663,num_5,2,0,2,0,0,2,2,0,0,6,6,2,1102.698959454,,,,,,,,,,,,,,1102.6839673260001,1102.698959454,1104.4089148550001,1104.3824191049998,1104.382455773,1104.4089148550001,1104.4089148550001,248.22720064099985,1107.3988013500002,None,0,,,,,,,,,,,,,,,,,,,,,,CBAS0006,1,2025-02-25_09h36.59.257,ObjectScenePairTask_local_study2,2024.1.4,None,2025-02-25 09h39.52.805180 -0500,
instructions/Slide004.jpeg,study/imagelist_scene_study2.xlsx,study/images/Scn19_1.jpeg,2.9765713116852934,num_8,2,0,2,0,0,2,2,0,0,7,7,6,1107.414686139,,,,,,,,,,,,,,1107.4005697440002,1107.414686139,1110.40857925,1110.383522646,1110.383587367,1110.40857925,1110.40857925,254.22722587399994,1113.3950793,None,0,,,,,,,,,,,,,,,,,,,,,,CBAS0006,1,2025-02-25_09h36.59.257,ObjectScenePairTask_local_study2,2024.1.4,None,2025-02-25 09h39.52.805180 -0500,
instructions/Slide004.jpeg,study/imagelist_scene_study2.xlsx,study/images/Scn16_1.jpeg,2.2330201614248137,num_8,2,0,2,0,0,2,2,0,0,8,8,3,1113.4126137570001,,,,,,,,,,,,,,1113.39593634,1113.4126137570001,1115.6507280239998,1115.6359759709999,1115.6359932750001,1115.6507280239998,1115.6507280239998,259.46862243199985,1118.6456325620002,None,0,,,,,,,,,,,,,,,,,,,,,,CBAS0006,1,2025-02-25_09h36.59.257,ObjectScenePairTask_local_study2,2024.1.4,None,2025-02-25 09h39.52.805180 -0500,
instructions/Slide004.jpeg,study/imagelist_scene_study2.xlsx,study/images/Scn73_1.jpeg,2.2979653297097844,num_5,2,0,2,0,0,2,2,0,0,9,9,7,1118.6613676719999,,,,,,,,,,,,,,1118.6466656490002,1118.6613676719999,1120.972623648,1120.9467117600002,1120.946746301,1120.972623648,1120.972623648,264.7914045910002,1123.960667498,None,0,,,,,,,,,,,,,,,,,,,,,,CBAS0006,1,2025-02-25_09h36.59.257,ObjectScenePairTask_local_study2,2024.1.4,None,2025-02-25 09h39.52.805180 -0500,
instructions/Slide004.jpeg,study/imagelist_scene_study2.xlsx,study/images/Scn21_1.jpeg,1.2325463777983536,num_5,2,0,2,0,0,2,2,0,0,10,10,8,1123.9748378190002,,,,,,,,,,,,,,1123.961879385,1123.9748378190002,1125.221060578,1125.195001728,1125.19503721,1125.221060578,1125.221060578,269.039427275,1128.197319894,None,0,,,,,,,,,,,,,,,,,,,,,,CBAS0006,1,2025-02-25_09h36.59.257,ObjectScenePairTask_local_study2,2024.1.4,None,2025-02-25 09h39.52.805180 -0500,
instructions/Slide004.jpeg,study/imagelist_scene_study2.xlsx,study/images/Scn24_1.jpeg,2.124427887914705,num_8,2,0,2,0,0,2,2,0,0,11,11,11,1128.2068830029998,,,,,,,,,,,,,,1128.1982060159999,1128.2068830029998,1130.3517843210002,1130.3243264389998,1130.324356007,1130.3517843210002,1130.3517843210002,274.17030727500014,1133.3295727660002,None,0,,,,,,,,,,,,,,,,,,,,,,CBAS0006,1,2025-02-25_09h36.59.257,ObjectScenePairTask_local_study2,2024.1.4,None,2025-02-25 09h39.52.805180 -0500,
instructions/Slide004.jpeg,study/imagelist_scene_study2.xlsx,study/images/Scn22_1.jpeg,1.5542195339045664,num_8,2,0,2,0,0,2,2,0,0,12,12,9,1133.337637567,,,,,,,,,,,,,,1133.3304797800001,1133.337637567,1134.907530807,1134.880181775,1134.880217639,1134.907530807,1134.907530807,278.72576548000006,1137.886845336,None,0,,,,,,,,,,,,,,,,,,,,,,CBAS0006,1,2025-02-25_09h36.59.257,ObjectScenePairTask_local_study2,2024.1.4,None,2025-02-25 09h39.52.805180 -0500,
instructions/Slide004.jpeg,study/imagelist_scene_study2.xlsx,study/images/Scn23_1.jpeg,2.3324813091625107,num_5,2,0,2,0,0,2,2,0,0,13,13,10,1137.8935841520001,,,,,,,,,,,,,,1137.8879097499998,1137.8935841520001,1140.2312629560001,1140.212077882,1140.2121085210001,1140.2312629560001,1140.2312629560001,284.04978235,1143.2189927220002,None,0,,,,,,,,,,,,,,,,,,,,,,CBAS0006,1,2025-02-25_09h36.59.257,ObjectScenePairTask_local_study2,2024.1.4,None,2025-02-25 09h39.52.805180 -0500,
instructions/Slide004.jpeg,study/imagelist_scene_study2.xlsx,,,,2,0,2,0,0,2,2,0,,,,,,,,,,,,,,,,,,,,,,,,,,,,,,,,,,,,,,,,,,,,,,,,,,,CBAS0006,1,2025-02-25_09h36.59.257,ObjectScenePairTask_local_study2,2024.1.4,None,2025-02-25 09h39.52.805180 -0500,
instructions/Slide006.jpeg,study/imagelist_pair_study3.xlsx,study/images/Pair46_1.jpeg,2.559206248716719,num_5,2,0,2,0,0,3,3,3,0,0,0,12,1152.370606002,,,,,,1143.304206893,1143.331137611,1143.331137611,1152.35192254,296.1687067930002,3,9.011881377999998,None,1152.363779876,1152.370606002,1154.9464380499999,1154.920487497,1154.920522032,1154.9464380499999,1154.9464380499999,298.76492146400005,1157.9228945539999,None,0,,,,,,,,,,,,,,,,,,,,,,CBAS0006,1,2025-02-25_09h36.59.257,ObjectScenePairTask_local_study2,2024.1.4,None,2025-02-25 09h39.52.805180 -0500,
instructions/Slide006.jpeg,study/imagelist_pair_study3.xlsx,study/images/Pair43_1.jpeg,1.7410522555806724,num_8,2,0,2,0,0,3,3,3,0,1,1,9,1157.996622788,,,,,,,,,,,,,,1157.9237896230002,1157.996622788,1159.760175288,1159.736629655,1159.736664914,1159.760175288,1159.760175288,303.57938731700006,1162.7382219300002,None,0,,,,,,,,,,,,,,,,,,,,,,CBAS0006,1,2025-02-25_09h36.59.257,ObjectScenePairTask_local_study2,2024.1.4,None,2025-02-25 09h39.52.805180 -0500,
instructions/Slide006.jpeg,study/imagelist_pair_study3.xlsx,study/images/Pair32_1.jpeg,1.7730465193296723,num_8,2,0,2,0,0,3,3,3,0,2,2,0,1162.7472435949999,,,,,,,,,,,,,,1162.7389795079998,1162.7472435949999,1164.5450321130002,1164.518512357,1164.518547697,1164.5450321130002,1164.5450321130002,308.3637547389999,1167.5202160499998,None,0,,,,,,,,,,,,,,,,,,,,,,CBAS0006,1,2025-02-25_09h36.59.257,ObjectScenePairTask_local_study2,2024.1.4,None,2025-02-25 09h39.52.805180 -0500,
instructions/Slide006.jpeg,study/imagelist_pair_study3.xlsx,study/images/Pair39_1.jpeg,1.389581094323528,num_5,2,0,2,0,0,3,3,3,0,3,3,5,1167.5294215200001,,,,,,,,,,,,,,1167.5207988299999,1167.5294215200001,1168.922553497,1168.9035591699999,1168.903586462,1168.922553497,1168.922553497,312.7409261560001,1171.9118546149998,None,0,,,,,,,,,,,,,,,,,,,,,,CBAS0006,1,2025-02-25_09h36.59.257,ObjectScenePairTask_local_study2,2024.1.4,None,2025-02-25 09h39.52.805180 -0500,
instructions/Slide006.jpeg,study/imagelist_pair_study3.xlsx,study/images/Pair37_1.jpeg,2.5746984429035242,num_8,2,0,2,0,0,3,3,3,0,4,4,3,1171.919030601,,,,,,,,,,,,,,1171.912881014,1171.919030601,1174.507552612,1174.4821765390002,1174.4822131730002,1174.507552612,1174.507552612,318.32650477900006,1177.495875516,None,0,,,,,,,,,,,,,,,,,,,,,,CBAS0006,1,2025-02-25_09h36.59.257,ObjectScenePairTask_local_study2,2024.1.4,None,2025-02-25 09h39.52.805180 -0500,
instructions/Slide006.jpeg,study/imagelist_pair_study3.xlsx,study/images/Pair38_1.jpeg,2.7460546105084735,num_8,2,0,2,0,0,3,3,3,0,5,5,4,1177.510558292,,,,,,,,,,,,,,1177.4969137429998,1177.510558292,1180.270951821,1180.2447510289999,1180.2447852670002,1180.270951821,1180.270951821,324.0895399350002,1183.2492301510001,None,0,,,,,,,,,,,,,,,,,,,,,,CBAS0006,1,2025-02-25_09h36.59.257,ObjectScenePairTask_local_study2,2024.1.4,None,2025-02-25 09h39.52.805180 -0500,
instructions/Slide006.jpeg,study/imagelist_pair_study3.xlsx,study/images/Pair45_1.jpeg,2.659617309108227,num_8,2,0,2,0,0,3,3,3,0,6,6,11,1183.2577528000002,,,,,,,,,,,,,,1183.25015003,1183.2577528000002,1185.9377625400002,1185.9125395629999,1185.912584953,1185.9377625400002,1185.9377625400002,329.75643935200014,1188.9128308,None,0,,,,,,,,,,,,,,,,,,,,,,CBAS0006,1,2025-02-25_09h36.59.257,ObjectScenePairTask_local_study2,2024.1.4,None,2025-02-25 09h39.52.805180 -0500,
instructions/Slide006.jpeg,study/imagelist_pair_study3.xlsx,study/images/Pair48_1.jpeg,2.0780684853739864,num_5,2,0,2,0,0,3,3,3,0,7,7,13,1188.92358879,,,,,,,,,,,,,,1188.9135747209998,1188.92358879,1191.012179924,1190.991473143,1190.991501724,1191.012179924,1191.012179924,334.83080873400013,1194.005417063,None,0,,,,,,,,,,,,,,,,,,,,,,CBAS0006,1,2025-02-25_09h36.59.257,ObjectScenePairTask_local_study2,2024.1.4,None,2025-02-25 09h39.52.805180 -0500,
instructions/Slide006.jpeg,study/imagelist_pair_study3.xlsx,study/images/Pair44_1.jpeg,1.1443879828201142,num_8,2,0,2,0,0,3,3,3,0,8,8,10,1194.014092122,,,,,,,,,,,,,,1194.007361863,1194.014092122,1195.167666277,1195.146642179,1195.146671464,1195.167666277,1195.167666277,338.9862193160002,1198.14676804,None,0,,,,,,,,,,,,,,,,,,,,,,CBAS0006,1,2025-02-25_09h36.59.257,ObjectScenePairTask_local_study2,2024.1.4,None,2025-02-25 09h39.52.805180 -0500,
instructions/Slide006.jpeg,study/imagelist_pair_study3.xlsx,study/images/Pair33_1.jpeg,1.548890735794928,num_5,2,0,2,0,0,3,3,3,0,9,9,1,1198.1557438579998,,,,,,,,,,,,,,1198.1475821079998,1198.1557438579998,1199.711793858,1199.688394875,1199.6884193750002,1199.711793858,1199.711793858,343.53024403200016,1202.692726966,None,0,,,,,,,,,,,,,,,,,,,,,,CBAS0006,1,2025-02-25_09h36.59.257,ObjectScenePairTask_local_study2,2024.1.4,None,2025-02-25 09h39.52.805180 -0500,
instructions/Slide006.jpeg,study/imagelist_pair_study3.xlsx,study/images/Pair40_1.jpeg,1.8947718687691597,num_8,2,0,2,0,0,3,3,3,0,10,10,6,1202.7021420639999,,,,,,,,,,,,,,1202.69325433,1202.7021420639999,1204.6142546330002,1204.5870972429998,1204.5871413680002,1204.6142546330002,1204.6142546330002,348.43270487400014,1207.5910109820002,None,0,,,,,,,,,,,,,,,,,,,,,,CBAS0006,1,2025-02-25_09h36.59.257,ObjectScenePairTask_local_study2,2024.1.4,None,2025-02-25 09h39.52.805180 -0500,
instructions/Slide006.jpeg,study/imagelist_pair_study3.xlsx,study/images/Pair42_1.jpeg,1.6285457166730208,num_8,2,0,2,0,0,3,3,3,0,11,11,8,1207.6016500209998,,,,,,,,,,,,,,1207.591890538,1207.6016500209998,1209.237737983,1209.2193617970001,1209.2193877139998,1209.237737983,1209.237737983,353.0564667540002,1212.220242555,None,0,,,,,,,,,,,,,,,,,,,,,,CBAS0006,1,2025-02-25_09h36.59.257,ObjectScenePairTask_local_study2,2024.1.4,None,2025-02-25 09h39.52.805180 -0500,
instructions/Slide006.jpeg,study/imagelist_pair_study3.xlsx,study/images/Pair41_1.jpeg,2.731139237548036,num_8,2,0,2,0,0,3,3,3,0,12,12,7,1212.236180369,,,,,,,,,,,,,,1212.2214401229999,1212.236180369,1214.982156681,1214.9548204870002,1214.9548539940001,1214.982156681,1214.982156681,358.80079982200004,1217.968239883,None,0,,,,,,,,,,,,,,,,,,,,,,CBAS0006,1,2025-02-25_09h36.59.257,ObjectScenePairTask_local_study2,2024.1.4,None,2025-02-25 09h39.52.805180 -0500,
instructions/Slide006.jpeg,study/imagelist_pair_study3.xlsx,study/images/Pair35_1.jpeg,1.6005167263957878,num_5,2,0,2,0,0,3,3,3,0,13,13,2,1217.9851115249999,,,,,,,,,,,,,,1217.969340612,1217.9851115249999,1219.591783111,1219.572782838,1219.5728066759998,1219.591783111,1219.591783111,363.41044788199997,1222.5745923270001,None,0,,,,,,,,,,,,,,,,,,,,,,CBAS0006,1,2025-02-25_09h36.59.257,ObjectScenePairTask_local_study2,2024.1.4,None,2025-02-25 09h39.52.805180 -0500,
instructions/Slide006.jpeg,study/imagelist_pair_study3.xlsx,,,,2,0,2,0,0,3,3,3,,,,,,,,,,,,,,,,,,,,,,,,,,,,,,,,,,,,,,,,,,,,,,,,,,,CBAS0006,1,2025-02-25_09h36.59.257,ObjectScenePairTask_local_study2,2024.1.4,None,2025-02-25 09h39.52.805180 -0500,
,,,,,2,0,2,0,,,,,,,,,,,,,,,,,,,,,,,,,,,,,,,,,,,,,,1222.773332589,1222.7782785069999,1224.5698134660001,1243.1967899269998,space,18.62359098600018,None,1243.197127122,1243.208911396,1245.2003840840002,1245.2038758120002,num_divide,4.473532750999766,None,,,,CBAS0006,1,2025-02-25_09h36.59.257,ObjectScenePairTask_local_study2,2024.1.4,None,2025-02-25 09h39.52.805180 -0500,
instructions/Slide006.jpeg,study/imagelist_pair_study7.xlsx,study/images/Pair99_1.jpeg,1.853326374969483,num_8,3,0,3,0,0,0,0,1,0,0,0,3,1259.1458138389999,,,,,,1245.2177859409999,1245.251445601,1245.251445601,1259.131703,13.927270667999892,3,13.870878987000197,None,1259.1405111220001,1259.1458138389999,1261.016184739,1260.989082437,1260.989110851,1261.016184739,1261.016184739,15.813436955999805,1263.9939389239998,None,0,,,,,,,,,,,,,,,,,,,,,,CBAS0006,1,2025-02-25_09h36.59.257,ObjectScenePairTask_local_study2,2024.1.4,None,2025-02-25 09h39.52.805180 -0500,
instructions/Slide006.jpeg,study/imagelist_pair_study7.xlsx,study/images/Pair107_1.jpeg,1.2832885485687515,num_5,3,0,3,0,0,0,0,1,0,1,1,9,1264.0021600159998,,,,,,,,,,,,,,1263.9950596939998,1264.0021600159998,1265.3003477890002,1265.2746503039998,1265.2747130829998,1265.3003477890002,1265.3003477890002,20.098139704999994,1268.2755105659999,None,0,,,,,,,,,,,,,,,,,,,,,,CBAS0006,1,2025-02-25_09h36.59.257,ObjectScenePairTask_local_study2,2024.1.4,None,2025-02-25 09h39.52.805180 -0500,
instructions/Slide006.jpeg,study/imagelist_pair_study7.xlsx,study/images/Pair96_1.jpeg,1.6955422007737633,num_8,3,0,3,0,0,0,0,1,0,2,2,0,1268.28520308,,,,,,,,,,,,,,1268.2762828149998,1268.28520308,1269.9975104129999,1269.9700244169999,1269.9700601139998,1269.9975104129999,1269.9975104129999,24.794951713000046,1272.9866961920002,None,0,,,,,,,,,,,,,,,,,,,,,,CBAS0006,1,2025-02-25_09h36.59.257,ObjectScenePairTask_local_study2,2024.1.4,None,2025-02-25 09h39.52.805180 -0500,
instructions/Slide006.jpeg,study/imagelist_pair_study7.xlsx,study/images/Pair105_1.jpeg,2.1471731151436098,num_8,3,0,3,0,0,0,0,1,0,3,3,7,1273.0031503220002,,,,,,,,,,,,,,1272.987829617,1273.0031503220002,1275.1615577490002,1275.13592926,1275.135964225,1275.1615577490002,1275.1615577490002,29.959242569999788,1278.1509495240002,None,0,,,,,,,,,,,,,,,,,,,,,,CBAS0006,1,2025-02-25_09h36.59.257,ObjectScenePairTask_local_study2,2024.1.4,None,2025-02-25 09h39.52.805180 -0500,
instructions/Slide006.jpeg,study/imagelist_pair_study7.xlsx,study/images/Pair101_1.jpeg,1.1386241291924035,num_8,3,0,3,0,0,0,0,1,0,4,4,5,1278.168663041,,,,,,,,,,,,,,1278.151849331,1278.168663041,1279.331743353,1279.3042056670001,1279.3042573120001,1279.331743353,1279.331743353,34.12902228299981,1282.3148781139998,None,0,,,,,,,,,,,,,,,,,,,,,,CBAS0006,1,2025-02-25_09h36.59.257,ObjectScenePairTask_local_study2,2024.1.4,None,2025-02-25 09h39.52.805180 -0500,
instructions/Slide006.jpeg,study/imagelist_pair_study7.xlsx,study/images/Pair112_1.jpeg,2.415671573282691,num_8,3,0,3,0,0,0,0,1,0,5,5,13,1282.320171296,,,,,,,,,,,,,,1282.315377163,1282.320171296,1284.7599856840002,1284.735034234,1284.7350696090002,1284.7599856840002,1284.7599856840002,39.5572857520001,1287.737493045,None,0,,,,,,,,,,,,,,,,,,,,,,CBAS0006,1,2025-02-25_09h36.59.257,ObjectScenePairTask_local_study2,2024.1.4,None,2025-02-25 09h39.52.805180 -0500,
instructions/Slide006.jpeg,study/imagelist_pair_study7.xlsx,study/images/Pair111_1.jpeg,1.3775330689918368,num_5,3,0,3,0,0,0,0,1,0,6,6,12,1287.7459763739998,,,,,,,,,,,,,,1287.7383788420002,1287.7459763739998,1289.1346737899999,1289.1151459090001,1289.115182122,1289.1346737899999,1289.1346737899999,43.932074103000105,1292.1199833340002,None,0,,,,,,,,,,,,,,,,,,,,,,CBAS0006,1,2025-02-25_09h36.59.257,ObjectScenePairTask_local_study2,2024.1.4,None,2025-02-25 09h39.52.805180 -0500,
instructions/Slide006.jpeg,study/imagelist_pair_study7.xlsx,study/images/Pair110_1.jpeg,2.954133176270563,num_5,3,0,3,0,0,0,0,1,0,7,7,11,1292.128238012,,,,,,,,,,,,,,1292.120953694,1292.128238012,1295.0908692369999,1295.068718126,1295.0687421910002,1295.0908692369999,1295.0908692369999,49.888034914999935,1298.0796582859998,None,0,,,,,,,,,,,,,,,,,,,,,,CBAS0006,1,2025-02-25_09h36.59.257,ObjectScenePairTask_local_study2,2024.1.4,None,2025-02-25 09h39.52.805180 -0500,
instructions/Slide006.jpeg,study/imagelist_pair_study7.xlsx,study/images/Pair103_1.jpeg,1.2446917724239086,num_8,3,0,3,0,0,0,0,1,0,8,8,6,1298.096161081,,,,,,,,,,,,,,1298.081319849,1298.096161081,1299.358717094,1299.33171099,1299.3317559010002,1299.358717094,1299.358717094,54.15649559900021,1302.3437920669999,None,0,,,,,,,,,,,,,,,,,,,,,,CBAS0006,1,2025-02-25_09h36.59.257,ObjectScenePairTask_local_study2,2024.1.4,None,2025-02-25 09h39.52.805180 -0500,
instructions/Slide006.jpeg,study/imagelist_pair_study7.xlsx,study/images/Pair100_1.jpeg,2.90220219384094,num_5,3,0,3,0,0,0,0,1,0,9,9,4,1302.3523901120002,,,,,,,,,,,,,,1302.345003589,1302.3523901120002,1305.2723218719998,1305.247885926,1305.247921708,1305.2723218719998,1305.2723218719998,60.07003764499996,1308.248816793,None,0,,,,,,,,,,,,,,,,,,,,,,CBAS0006,1,2025-02-25_09h36.59.257,ObjectScenePairTask_local_study2,2024.1.4,None,2025-02-25 09h39.52.805180 -0500,
instructions/Slide006.jpeg,study/imagelist_pair_study7.xlsx,study/images/Pair98_1.jpeg,1.8565796272283364,num_5,3,0,3,0,0,0,0,1,0,10,10,2,1308.257172089,,,,,,,,,,,,,,1308.249708072,1308.257172089,1310.1335270999998,1310.111744415,1310.111778776,1310.1335270999998,1310.1335270999998,64.9312665880002,1313.124877879,None,0,,,,,,,,,,,,,,,,,,,,,,CBAS0006,1,2025-02-25_09h36.59.257,ObjectScenePairTask_local_study2,2024.1.4,None,2025-02-25 09h39.52.805180 -0500,
instructions/Slide006.jpeg,study/imagelist_pair_study7.xlsx,study/images/Pair106_1.jpeg,1.50567983,num_8,3,0,3,0,0,0,0,1,0,11,11,8,1313.1416678250002,,,,,,,,,,,,,,1313.1255542489998,1313.1416678250002,1314.6682963580001,1314.6438050370002,1314.643840056,1314.6682963580001,1314.6682963580001,69.46621811700015,1317.6551737,None,0,,,,,,,,,,,,,,,,,,,,,,CBAS0006,1,2025-02-25_09h36.59.257,ObjectScenePairTask_local_study2,2024.1.4,None,2025-02-25 09h39.52.805180 -0500,
instructions/Slide006.jpeg,study/imagelist_pair_study7.xlsx,study/images/Pair108_1.jpeg,2.2327817978312177,num_8,3,0,3,0,0,0,0,1,0,12,12,10,1317.67145462,,,,,,,,,,,,,,1317.656768242,1317.67145462,1319.913819115,1319.889550813,1319.8895780500002,1319.913819115,1319.913819115,74.71105497000008,1322.8939995800001,None,0,,,,,,,,,,,,,,,,,,,,,,CBAS0006,1,2025-02-25_09h36.59.257,ObjectScenePairTask_local_study2,2024.1.4,None,2025-02-25 09h39.52.805180 -0500,
instructions/Slide006.jpeg,study/imagelist_pair_study7.xlsx,study/images/Pair97_1.jpeg,2.3025189829870403,num_5,3,0,3,0,0,0,0,1,0,13,13,1,1322.90324779,,,,,,,,,,,,,,1322.894869704,1322.90324779,1325.2253110030001,1325.1960418429999,1325.196075075,1325.2253110030001,1325.2253110030001,80.02278961999991,1328.204111867,None,0,,,,,,,,,,,,,,,,,,,,,,CBAS0006,1,2025-02-25_09h36.59.257,ObjectScenePairTask_local_study2,2024.1.4,None,2025-02-25 09h39.52.805180 -0500,
instructions/Slide006.jpeg,study/imagelist_pair_study7.xlsx,,,,3,0,3,0,0,0,0,1,,,,,,,,,,,,,,,,,,,,,,,,,,,,,,,,,,,,,,,,,,,,,,,,,,,CBAS0006,1,2025-02-25_09h36.59.257,ObjectScenePairTask_local_study2,2024.1.4,None,2025-02-25 09h39.52.805180 -0500,
instructions/Slide005.jpeg,study/imagelist_object_study2.xlsx,study/images/Obj24_1.jpeg,1.1117018987157725,num_5,3,0,3,0,0,1,1,0,0,0,0,11,1333.101717908,,,,,,1328.3237226320002,1328.3479336139999,1328.3479336139999,1333.086245334,87.88181707800004,3,4.735050268000123,None,1333.09496321,1333.101717908,1334.2246113679998,1334.2024574920001,1334.2025015670001,1334.2246113679998,1334.2246113679998,89.022111365,1337.2064910459999,None,0,,,,,,,,,,,,,,,,,,,,,,CBAS0006,1,2025-02-25_09h36.59.257,ObjectScenePairTask_local_study2,2024.1.4,None,2025-02-25 09h39.52.805180 -0500,
instructions/Slide005.jpeg,study/imagelist_object_study2.xlsx,study/images/Obj76_1.jpeg,2.4464342593380533,num_5,3,0,3,0,0,1,1,0,0,1,1,5,1337.2165526150002,,,,,,,,,,,,,,1337.207394512,1337.2165526150002,1339.671291138,1339.651747244,1339.651781955,1339.671291138,1339.671291138,94.46867215100019,1342.668054526,None,0,,,,,,,,,,,,,,,,,,,,,,CBAS0006,1,2025-02-25_09h36.59.257,ObjectScenePairTask_local_study2,2024.1.4,None,2025-02-25 09h39.52.805180 -0500,
instructions/Slide005.jpeg,study/imagelist_object_study2.xlsx,study/images/Obj20_1.jpeg,1.014454932089585,num_5,3,0,3,0,0,1,1,0,0,2,2,7,1342.6846037,,,,,,,,,,,,,,1342.6692618390002,1342.6846037,1343.705520252,1343.6863448109998,1343.686380915,1343.705520252,1343.705520252,98.50299733700012,1346.6996164379998,None,0,,,,,,,,,,,,,,,,,,,,,,CBAS0006,1,2025-02-25_09h36.59.257,ObjectScenePairTask_local_study2,2024.1.4,None,2025-02-25 09h39.52.805180 -0500,
instructions/Slide005.jpeg,study/imagelist_object_study2.xlsx,study/images/Obj17_1.jpeg,2.437768550395427,num_8,3,0,3,0,0,1,1,0,0,3,3,4,1346.716085948,,,,,,,,,,,,,,1346.700698949,1346.716085948,1349.1606381709998,1349.1399100849999,1349.139943996,1349.1606381709998,1349.1606381709998,103.95838832299978,1352.1454691550002,None,0,,,,,,,,,,,,,,,,,,,,,,CBAS0006,1,2025-02-25_09h36.59.257,ObjectScenePairTask_local_study2,2024.1.4,None,2025-02-25 09h39.52.805180 -0500,
instructions/Slide005.jpeg,study/imagelist_object_study2.xlsx,study/images/Obj15_1.jpeg,1.1602717158719045,num_5,3,0,3,0,0,1,1,0,0,4,4,2,1352.15260395,,,,,,,,,,,,,,1352.1467673060001,1352.15260395,1353.319594522,1353.300533731,1353.30056944,1353.319594522,1353.319594522,108.11777750700003,1356.300807599,None,0,,,,,,,,,,,,,,,,,,,,,,CBAS0006,1,2025-02-25_09h36.59.257,ObjectScenePairTask_local_study2,2024.1.4,None,2025-02-25 09h39.52.805180 -0500,
instructions/Slide005.jpeg,study/imagelist_object_study2.xlsx,study/images/Obj21_1.jpeg,1.721783345194272,num_5,3,0,3,0,0,1,1,0,0,5,5,8,1356.3112356850002,,,,,,,,,,,,,,1356.3014271890002,1356.3112356850002,1358.0384226410001,1358.019698301,1358.019727296,1358.0384226410001,1358.0384226410001,112.8362057459999,1361.02901364,None,0,,,,,,,,,,,,,,,,,,,,,,CBAS0006,1,2025-02-25_09h36.59.257,ObjectScenePairTask_local_study2,2024.1.4,None,2025-02-25 09h39.52.805180 -0500,
instructions/Slide005.jpeg,study/imagelist_object_study2.xlsx,study/images/Obj27_1.jpeg,2.3392657752166377,num_8,3,0,3,0,0,1,1,0,0,6,6,10,1361.045641454,,,,,,,,,,,,,,1361.0302278539998,1361.045641454,1363.402559964,1363.381674199,1363.3817186820002,1363.402559964,1363.402559964,118.2003218660002,1366.393959726,None,0,,,,,,,,,,,,,,,,,,,,,,CBAS0006,1,2025-02-25_09h36.59.257,ObjectScenePairTask_local_study2,2024.1.4,None,2025-02-25 09h39.52.805180 -0500,
instructions/Slide005.jpeg,study/imagelist_object_study2.xlsx,study/images/Obj54_1.jpeg,1.9482856629384562,num_5,3,0,3,0,0,1,1,0,0,7,7,13,1366.4107648049999,,,,,,,,,,,,,,1366.3947935420001,1366.4107648049999,1368.363968912,1368.3438950169998,1368.3439305410002,1368.363968912,1368.363968912,123.16194879600016,1371.3478382859998,None,0,,,,,,,,,,,,,,,,,,,,,,CBAS0006,1,2025-02-25_09h36.59.257,ObjectScenePairTask_local_study2,2024.1.4,None,2025-02-25 09h39.52.805180 -0500,
instructions/Slide005.jpeg,study/imagelist_object_study2.xlsx,study/images/Obj13_1.jpeg,1.6076570931167662,num_5,3,0,3,0,0,1,1,0,0,8,8,0,1371.357257953,,,,,,,,,,,,,,1371.3486040369999,1371.357257953,1372.966545758,1372.949612768,1372.9496408680002,1372.966545758,1372.966545758,127.7640661559999,1375.959036493,None,0,,,,,,,,,,,,,,,,,,,,,,CBAS0006,1,2025-02-25_09h36.59.257,ObjectScenePairTask_local_study2,2024.1.4,None,2025-02-25 09h39.52.805180 -0500,
instructions/Slide005.jpeg,study/imagelist_object_study2.xlsx,study/images/Obj32_1.jpeg,2.3613855867382796,num_8,3,0,3,0,0,1,1,0,0,9,9,1,1375.974955238,,,,,,,,,,,,,,1375.9601027090002,1375.974955238,1378.3347516120002,1378.3234602379998,1378.3234837129999,1378.3347516120002,1378.3347516120002,133.13186549300008,1381.323971542,None,0,,,,,,,,,,,,,,,,,,,,,,CBAS0006,1,2025-02-25_09h36.59.257,ObjectScenePairTask_local_study2,2024.1.4,None,2025-02-25 09h39.52.805180 -0500,
