BlockType,CondsFile,ImageFile,Time,CorrectResp,runs.thisRepN,runs.thisTrialN,runs.thisN,runs.thisIndex,studyblock.thisRepN,studyblock.thisTrialN,studyblock.thisN,studyblock.thisIndex,studytrial.thisRepN,studytrial.thisTrialN,studytrial.thisN,studytrial.thisIndex,thisRow.t,notes,inst4_2.started,study_inst_2.started,fmri_resp_2.started,inst4_2.stopped,study_block.started,InstStudyBlock_Img.started,key_resp.started,study_block.stopped,block_start_time,key_resp.keys,key_resp.rt,key_resp.duration,fix.started,text.started,text.stopped,fix.stopped,study_trial.started,Study_Img.started,Study_Resp.started,stimulus_start_time,study_trial.stopped,Study_Resp.keys,Study_Resp.corr,Study_Resp.rt,Study_Resp.duration,Study_Img.stopped,Study_Resp.stopped,wait.started,wait_fix.started,fmri_resp2.started,wait.stopped,fmri_resp2.keys,fmri_resp2.rt,fmri_resp2.duration,wait_2.started,wait_fix_2.started,fmri_resp2_2.started,wait_2.stopped,fmri_resp2_2.keys,fmri_resp2_2.rt,fmri_resp2_2.duration,finish.started,wait_3.started,finish.stopped,workerId,session,date,expName,psychopyVersion,frameRate,expStart
,,,,,,,,,,,,,,,,,,,0.013373502995818853,0.027774114976637065,1.996257220976986,240.38793352700304,,,,,,,,,,,,,,,,,,,,,,,,,,,,,,,,,,,,,,,,,CBAS0004,1,2024-12-11_13h44.35.528,ObjectScenePairTask_local_study2,2024.1.4,None,2024-12-11 13h45.01.620014 -0500
instructions/Slide005.jpeg,study/imagelist_object_study1.xlsx,study/images/Obj41_1.jpeg,1.6864489169387133,num_5,0,0,0,0,0,0,0,0,0,0,0,0,245.8182274189312,,,,,,240.3971514350269,240.4554845020175,240.4554845020175,245.7815290610306,5.393601009,num_2,5.322868273011409,None,245.7986997399712,245.8182274189312,247.51911959797144,247.49759376095608,247.49762577202637,247.51911959797144,247.51911959797144,7.131556640029885,250.5008300000336,num_5,1,1.4032188080018386,0.4719071419676766,,,,,,,,,,,,,,,,,,,,CBAS0004,1,2024-12-11_13h44.35.528,ObjectScenePairTask_local_study2,2024.1.4,None,2024-12-11 13h45.01.620014 -0500
instructions/Slide005.jpeg,study/imagelist_object_study1.xlsx,study/images/Obj69_1.jpeg,2.5782488317627372,num_5,0,0,0,0,0,0,0,0,0,1,1,7,250.5127040889347,,,,,,,,,,,,,,250.50228130398318,250.5127040889347,253.1025136859389,253.07944885303732,253.07956965302583,253.1025136859389,253.1025136859389,12.714996987953782,256.08188907802105,num_5,1,0.7797943319892511,0.4080435159849003,,,,,,,,,,,,,,,,,,,,CBAS0004,1,2024-12-11_13h44.35.528,ObjectScenePairTask_local_study2,2024.1.4,None,2024-12-11 13h45.01.620014 -0500
instructions/Slide005.jpeg,study/imagelist_object_study1.xlsx,study/images/Obj34_1.jpeg,2.6610683635905685,num_8,0,0,0,0,0,0,0,0,0,2,2,4,256.0933830719441,,,,,,,,,,,,,,256.0829010659363,256.0933830719441,258.7612543969881,258.7435858,258.7436760199489,258.7612543969881,258.7612543969881,18.373744250973687,261.7486846599495,num_8,1,0.833082206,0.23193513602018356,,,,,,,,,,,,,,,,,,,,CBAS0004,1,2024-12-11_13h44.35.528,ObjectScenePairTask_local_study2,2024.1.4,None,2024-12-11 13h45.01.620014 -0500
instructions/Slide005.jpeg,study/imagelist_object_study1.xlsx,study/images/Obj12_1.jpeg,1.327944396112209,num_5,0,0,0,0,0,0,0,0,0,3,3,1,261.7592481819447,,,,,,,,,,,,,,261.7502365509281,261.7592481819447,263.0917745770421,263.0754361139843,263.07547260203864,263.0917745770421,263.0917745770421,22.704317637952045,266.0752979880199,num_5,1,0.74251805,0.32798877905588597,266.0829213,266.0829213,,,,,,,,,,,,,,,,,,CBAS0004,1,2024-12-11_13h44.35.528,ObjectScenePairTask_local_study2,2024.1.4,None,2024-12-11 13h45.01.620014 -0500
instructions/Slide005.jpeg,study/imagelist_object_study1.xlsx,study/images/Obj46_1.jpeg,2.602853651968369,num_5,0,0,0,0,0,0,0,0,0,4,4,12,266.0829213,,,,,,,,,,,,,,266.07719438895583,266.0829213,268.69322999496944,268.6751601259457,268.67519127600826,268.69322999496944,268.69322999496944,28.305723267025314,271.67924533295445,num_5,1,0.7890802120091394,0.29601913306396455,,,,,,,,,,,,,,,,,,,,CBAS0004,1,2024-12-11_13h44.35.528,ObjectScenePairTask_local_study2,2024.1.4,None,2024-12-11 13h45.01.620014 -0500
instructions/Slide005.jpeg,study/imagelist_object_study1.xlsx,study/images/Obj9_1.jpeg,1.2055605833537681,num_8,0,0,0,0,0,0,0,0,0,5,5,11,271.68967872695066,,,,,,,,,,,,,,271.6808377390262,271.68967872695066,272.89767012302764,272.8806261960417,272.88065660197753,272.89767012302764,272.89767012302764,32.510110571049154,275.88876212993637,num_8,1,0.9846746409311891,0.23201976204290986,,,,,,,,,,,,,,,,,,,,CBAS0004,1,2024-12-11_13h44.35.528,ObjectScenePairTask_local_study2,2024.1.4,None,2024-12-11 13h45.01.620014 -0500
instructions/Slide005.jpeg,study/imagelist_object_study1.xlsx,study/images/Obj4_1.jpeg,1.5361792972146124,num_5,0,0,0,0,0,0,0,0,0,6,6,5,275.89552008197643,,,,,,,,,,,,,,275.8901513610035,275.89552008197643,277.4404710549861,277.42245782597456,277.42248337203637,277.4404710549861,277.4404710549861,37.052949958946556,280.42692617094144,num_5,1,1.0338148600421846,0.32802787993568927,,,,,,,,,,,,,,,,,,,,CBAS0004,1,2024-12-11_13h44.35.528,ObjectScenePairTask_local_study2,2024.1.4,None,2024-12-11 13h45.01.620014 -0500
instructions/Slide005.jpeg,study/imagelist_object_study1.xlsx,study/images/Obj78_1.jpeg,1.4908405856986189,num_5,0,0,0,0,0,0,0,0,0,7,7,9,280.43739961693063,,,,,,,,,,,,,,280.4285041639814,280.43739961693063,281.94072693004273,281.9214596829843,281.92149986396544,281.94072693004273,281.94072693004273,41.55335406702943,284.9243760439567,num_5,1,0.8776300209574401,0.30396010901313275,,,,,,,,,,,,,,,,,,,,CBAS0004,1,2024-12-11_13h44.35.528,ObjectScenePairTask_local_study2,2024.1.4,None,2024-12-11 13h45.01.620014 -0500
instructions/Slide005.jpeg,study/imagelist_object_study1.xlsx,study/images/Obj86_1.jpeg,2.0442657882184316,num_8,0,0,0,0,0,0,0,0,0,8,8,2,284.93612350698095,,,,,,,,,,,,,,284.92567786201835,284.93612350698095,286.99139117693994,286.97037101897877,286.97043233702425,286.99139117693994,286.99139117693994,46.60387956,289.9734390899539,num_8,1,0.6989343910245225,0.2639380809850991,,,,,,,,,,,,,,,,,,,,CBAS0004,1,2024-12-11_13h44.35.528,ObjectScenePairTask_local_study2,2024.1.4,None,2024-12-11 13h45.01.620014 -0500
instructions/Slide005.jpeg,study/imagelist_object_study1.xlsx,study/images/Obj65_1.jpeg,2.5505844888655185,num_8,0,0,0,0,0,0,0,0,0,9,9,6,289.98475897999015,,,,,,,,,,,,,,289.9746292310301,289.98475897999015,292.5381814999273,292.5186643030029,292.51870345300995,292.5381814999273,292.5381814999273,52.150801401003264,295.52235577395186,num_8,1,1.2161625470034778,0.24795223597902805,,,,,,,,,,,,,,,,,,,,CBAS0004,1,2024-12-11_13h44.35.528,ObjectScenePairTask_local_study2,2024.1.4,None,2024-12-11 13h45.01.620014 -0500
instructions/Slide005.jpeg,study/imagelist_object_study1.xlsx,study/images/Obj48_1.jpeg,2.074681191184287,num_8,0,0,0,0,0,0,0,0,0,10,10,13,295.5332514960319,,,,,,,,,,,,,,295.5239165070234,295.5332514960319,297.6173911719816,297.6006258,297.6006583189592,297.6173911719816,297.6173911719816,57.22987361904234,300.60460605297703,num_8,1,0.8488692910177633,0.2240648919250816,,,,,,,,,,,,,,,,,,,,CBAS0004,1,2024-12-11_13h44.35.528,ObjectScenePairTask_local_study2,2024.1.4,None,2024-12-11 13h45.01.620014 -0500
instructions/Slide005.jpeg,study/imagelist_object_study1.xlsx,study/images/Obj8_1.jpeg,2.819414737607065,num_5,0,0,0,0,0,0,0,0,0,11,11,10,300.6152168349363,,,,,,,,,,,,,,300.60592549992725,300.6152168349363,303.4409529049881,303.4211904669646,303.42122184694745,303.4409529049881,303.4409529049881,63.053409441024996,306.4309845500393,num_5,1,0.761386041,0.2640263300854713,,,,,,,,,,,,,,,,,,,,CBAS0004,1,2024-12-11_13h44.35.528,ObjectScenePairTask_local_study2,2024.1.4,None,2024-12-11 13h45.01.620014 -0500
instructions/Slide005.jpeg,study/imagelist_object_study1.xlsx,study/images/Obj7_1.jpeg,1.6252859280785785,num_5,0,0,0,0,0,0,0,0,0,12,12,8,306.43698674603365,,,,,,,,,,,,,,306.43204689898994,306.43698674603365,308.0652393270284,308.0479752100073,308.0480059100082,308.0652393270284,308.0652393270284,67.67772083496675,311.0512070939876,num_5,1,0.697087905,0.2880104120122269,,,,,,,,,,,,,,,,,,,,CBAS0004,1,2024-12-11_13h44.35.528,ObjectScenePairTask_local_study2,2024.1.4,None,2024-12-11 13h45.01.620014 -0500
instructions/Slide005.jpeg,study/imagelist_object_study1.xlsx,study/images/Obj30_1.jpeg,2.6438546826284073,num_8,0,0,0,0,0,0,0,0,0,13,13,3,311.06198177300394,,,,,,,,,,,,,,311.0523426409345,311.06198177300394,313.71398248092737,313.6962051,313.6962366850348,313.71398248092737,313.71398248092737,73.32654407899827,316.7002918960061,num_8,1,1.1762747999746352,0.18414023506920785,,,,,,,,,,,,,,,,,,,,CBAS0004,1,2024-12-11_13h44.35.528,ObjectScenePairTask_local_study2,2024.1.4,None,2024-12-11 13h45.01.620014 -0500
instructions/Slide005.jpeg,study/imagelist_object_study1.xlsx,,,,0,0,0,0,0,0,0,0,,,,,,,,,,,,,,,,,,,,,,,,,,,,,,,,,,,,,,,,,,,,,,,,,,,CBAS0004,1,2024-12-11_13h44.35.528,ObjectScenePairTask_local_study2,2024.1.4,None,2024-12-11 13h45.01.620014 -0500
instructions/Slide006.jpeg,study/imagelist_pair_study5.xlsx,study/images/Pair70_1.jpeg,1.380427696284317,num_8,0,0,0,0,0,1,1,2,0,0,0,4,320.80136684596073,,,,,,316.7398604369955,316.77816765604075,316.77816765604075,320.7723562,80.38442855305038,num_2,3.976079186075367,None,320.7896406749496,320.80136684596073,322.1797703159973,322.1649233700009,322.16495171701536,322.1797703159973,322.1797703159973,81.79226802801713,325.16521969099995,num_8,1,1.7345953929470852,0.2719462689710781,325.1751739389729,325.1751739389729,,,,,,,,,,,,,,,,,,CBAS0004,1,2024-12-11_13h44.35.528,ObjectScenePairTask_local_study2,2024.1.4,None,2024-12-11 13h45.01.620014 -0500
instructions/Slide006.jpeg,study/imagelist_pair_study5.xlsx,study/images/Pair77_1.jpeg,2.394205384244048,num_5,0,0,0,0,0,1,1,2,0,1,1,11,325.1751739389729,,,,,,,,,,,,,,325.1666745,325.1751739389729,327.5828427049564,327.5593446199782,327.55939121195115,327.5828427049564,327.5828427049564,87.19539437198546,330.56120878702495,num_5,1,1.2274184400448576,0.28803785296622664,,,,,,,,,,,,,,,,,,,,CBAS0004,1,2024-12-11_13h44.35.528,ObjectScenePairTask_local_study2,2024.1.4,None,2024-12-11 13h45.01.620014 -0500
instructions/Slide006.jpeg,study/imagelist_pair_study5.xlsx,study/images/Pair64_1.jpeg,2.6558401639636573,num_8,0,0,0,0,0,1,1,2,0,2,2,0,330.57413567602634,,,,,,,,,,,,,,330.5619007400237,330.57413567602634,333.2352555,333.21383645699825,333.2138973189285,333.2352555,333.2352555,92.84777280699927,336.22252346295863,num_8,1,1.2070831949822605,0.2719967720331624,,,,,,,,,,,,,,,,,,,,CBAS0004,1,2024-12-11_13h44.35.528,ObjectScenePairTask_local_study2,2024.1.4,None,2024-12-11 13h45.01.620014 -0500
instructions/Slide006.jpeg,study/imagelist_pair_study5.xlsx,study/images/Pair67_1.jpeg,1.032492422885639,num_8,0,0,0,0,0,1,1,2,0,3,3,1,336.2299787600059,,,,,,,,,,,,,,336.2244786089286,336.2299787600059,337.2665013639489,337.2453067220049,337.2453654379351,337.2665013639489,337.2665013639489,96.87909799604677,340.25474649702664,num_8,1,1.1438148739980534,0.2719923759577796,,,,,,,,,,,,,,,,,,,,CBAS0004,1,2024-12-11_13h44.35.528,ObjectScenePairTask_local_study2,2024.1.4,None,2024-12-11 13h45.01.620014 -0500
instructions/Slide006.jpeg,study/imagelist_pair_study5.xlsx,study/images/Pair73_1.jpeg,1.1329768430713747,num_5,0,0,0,0,0,1,1,2,0,4,4,7,340.2624544199789,,,,,,,,,,,,,,340.2568245,340.2624544199789,341.4113214199897,341.3885698,341.3886329709785,341.4113214199897,341.4113214199897,101.02385262795724,344.3926306599751,num_5,1,1.8150658799568191,0.22395704698283225,,,,,,,,,,,,,,,,,,,,CBAS0004,1,2024-12-11_13h44.35.528,ObjectScenePairTask_local_study2,2024.1.4,None,2024-12-11 13h45.01.620014 -0500
instructions/Slide006.jpeg,study/imagelist_pair_study5.xlsx,study/images/Pair76_1.jpeg,2.9957728268502475,num_5,0,0,0,0,0,1,1,2,0,5,5,10,344.4034521849826,,,,,,,,,,,,,,344.3943379910197,344.4034521849826,347.4057190429885,347.3871632210212,347.3871951,347.4057190429885,347.4057190429885,107.01831196399871,350.39082161092665,num_5,1,1.1246565990149975,0.2879963848972693,,,,,,,,,,,,,,,,,,,,CBAS0004,1,2024-12-11_13h44.35.528,ObjectScenePairTask_local_study2,2024.1.4,None,2024-12-11 13h45.01.620014 -0500
instructions/Slide006.jpeg,study/imagelist_pair_study5.xlsx,study/images/Pair72_1.jpeg,2.9924688236749515,num_8,0,0,0,0,0,1,1,2,0,6,6,6,350.40162213600706,,,,,,,,,,,,,,350.39200720598456,350.40162213600706,353.40860750502907,353.3856083609862,353.3856412169989,353.40860750502907,353.40860750502907,113.02183982299175,356.3889721209416,num_8,1,1.8657318439800292,0.26398977101780474,,,,,,,,,,,,,,,,,,,,CBAS0004,1,2024-12-11_13h44.35.528,ObjectScenePairTask_local_study2,2024.1.4,None,2024-12-11 13h45.01.620014 -0500
instructions/Slide006.jpeg,study/imagelist_pair_study5.xlsx,study/images/Pair75_1.jpeg,2.6777627394516497,num_5,0,0,0,0,0,1,1,2,0,7,7,9,356.4006432390306,,,,,,,,,,,,,,356.3902921589324,356.4006432390306,359.0879127,359.06705482304096,359.06708122300915,359.0879127,359.0879127,118.70051760703791,362.0710671240231,num_5,1,1.2824110799701884,0.28796880203299224,,,,,,,,,,,,,,,,,,,,CBAS0004,1,2024-12-11_13h44.35.528,ObjectScenePairTask_local_study2,2024.1.4,None,2024-12-11 13h45.01.620014 -0500
instructions/Slide006.jpeg,study/imagelist_pair_study5.xlsx,study/images/Pair68_1.jpeg,2.2524932607944885,num_5,0,0,0,0,0,1,1,2,0,8,8,2,362.0817183619365,,,,,,,,,,,,,,362.0719343,362.0817183619365,364.33823777595535,364.3204191,364.32043877395336,364.33823777595535,364.33823777595535,123.95072987896856,367.33070000295993,num_5,1,1.2321245319908485,0.2479546540416777,,,,,,,,,,,,,,,,,,,,CBAS0004,1,2024-12-11_13h44.35.528,ObjectScenePairTask_local_study2,2024.1.4,None,2024-12-11 13h45.01.620014 -0500
instructions/Slide006.jpeg,study/imagelist_pair_study5.xlsx,study/images/Pair78_1.jpeg,1.5686401213442056,num_8,0,0,0,0,0,1,1,2,0,9,9,12,367.3377852939302,,,,,,,,,,,,,,367.3325884080259,367.3377852939302,368.9213790179929,368.8979028459871,368.89793742098846,368.9213790179929,368.9213790179929,128.53403520502616,371.90259204700124,num_8,1,1.4089783580275252,0.26393763395026326,,,,,,,,,,,,,,,,,,,,CBAS0004,1,2024-12-11_13h44.35.528,ObjectScenePairTask_local_study2,2024.1.4,None,2024-12-11 13h45.01.620014 -0500
instructions/Slide006.jpeg,study/imagelist_pair_study5.xlsx,study/images/Pair79_1.jpeg,2.8144069703025054,num_8,0,0,0,0,0,1,1,2,0,10,10,13,371.9123586890055,,,,,,,,,,,,,,371.90390879195184,371.9123586890055,374.73864556499757,374.7153952559456,374.71543580200523,374.73864556499757,374.73864556499757,134.3514508670196,377.71683776099235,num_8,1,2.039566120947711,0.2721127129625529,,,,,,,,,,,,,,,,,,,,CBAS0004,1,2024-12-11_13h44.35.528,ObjectScenePairTask_local_study2,2024.1.4,None,2024-12-11 13h45.01.620014 -0500
instructions/Slide006.jpeg,study/imagelist_pair_study5.xlsx,study/images/Pair69_1.jpeg,2.646958313934766,num_8,0,0,0,0,0,1,1,2,0,11,11,3,377.72782508900855,,,,,,,,,,,,,,377.7179749549832,377.72782508900855,380.3886701989686,380.36183165502734,380.36186323396396,380.3886701989686,380.3886701989686,140.00135277304798,383.36576300498564,num_8,1,1.261630260036327,0.23204409494064748,,,,,,,,,,,,,,,,,,,,CBAS0004,1,2024-12-11_13h44.35.528,ObjectScenePairTask_local_study2,2024.1.4,None,2024-12-11 13h45.01.620014 -0500
instructions/Slide006.jpeg,study/imagelist_pair_study5.xlsx,study/images/Pair71_1.jpeg,1.7569355746166397,num_5,0,0,0,0,0,1,1,2,0,12,12,5,383.3765489299549,,,,,,,,,,,,,,383.3673393439967,383.3765489299549,385.1374474449549,385.11683937197085,385.11687127896585,385.1374474449549,385.1374474449549,144.7501277900301,388.1246830499731,num_5,1,2.2328800229588524,0.2480126000009477,,,,,,,,,,,,,,,,,,,,CBAS0004,1,2024-12-11_13h44.35.528,ObjectScenePairTask_local_study2,2024.1.4,None,2024-12-11 13h45.01.620014 -0500
instructions/Slide006.jpeg,study/imagelist_pair_study5.xlsx,study/images/Pair74_1.jpeg,2.465877006,num_5,0,0,0,0,0,1,1,2,0,13,13,8,388.1295251119882,,,,,,,,,,,,,,388.1255382510135,388.1295251119882,390.60496137395967,390.5813893339364,390.5814500149572,390.60496137395967,390.60496137395967,150.2178051789524,393.59022381994873,num_8,0,1.3893016839865595,0.24797813198529184,,,,,,,,,,,,,,,,,,,,CBAS0004,1,2024-12-11_13h44.35.528,ObjectScenePairTask_local_study2,2024.1.4,None,2024-12-11 13h45.01.620014 -0500
instructions/Slide006.jpeg,study/imagelist_pair_study5.xlsx,,,,0,0,0,0,0,1,1,2,,,,,,,,,,,,,,,,,,,,,,,,,,,,,,,,,,,,,,,,,,,,,,,,,,,CBAS0004,1,2024-12-11_13h44.35.528,ObjectScenePairTask_local_study2,2024.1.4,None,2024-12-11 13h45.01.620014 -0500
instructions/Slide006.jpeg,study/imagelist_pair_study1.xlsx,study/images/Pair7_1.jpeg,2.515311110852611,num_8,0,0,0,0,0,2,2,3,0,0,0,6,405.92308821703773,,,,,,393.64205763093196,393.6764487869805,393.6764487869805,405.89427151100244,165.5063360159984,num_2,12.213896477012895,None,405.91111629398074,405.92308821703773,408.4393751230091,408.4245559730334,408.42457410204224,408.4393751230091,408.4393751230091,168.05182700802106,411.4248471669853,num_8,1,0.9469152720412239,0.22413765802048147,,,,,,,,,,,,,,,,,,,,CBAS0004,1,2024-12-11_13h44.35.528,ObjectScenePairTask_local_study2,2024.1.4,None,2024-12-11 13h45.01.620014 -0500
instructions/Slide006.jpeg,study/imagelist_pair_study1.xlsx,study/images/Pair12_1.jpeg,1.4831341915987075,num_8,0,0,0,0,0,2,2,3,0,1,1,11,411.43477100797463,,,,,,,,,,,,,,411.42744224797934,411.43477100797463,412.92028359498363,412.9020335560199,412.90205210098065,412.92028359498363,412.92028359498363,172.53281031700317,415.90326362499036,num_8,1,1.8340676819207147,0.2479629220906645,,,,,,,,,,,,,,,,,,,,CBAS0004,1,2024-12-11_13h44.35.528,ObjectScenePairTask_local_study2,2024.1.4,None,2024-12-11 13h45.01.620014 -0500
instructions/Slide006.jpeg,study/imagelist_pair_study1.xlsx,study/images/Pair3_1.jpeg,1.3862482165297751,num_5,0,0,0,0,0,2,2,3,0,2,2,2,415.9174586930312,,,,,,,,,,,,,,415.90480542194564,415.9174586930312,417.3137832930079,417.2922532269731,417.2922857690137,417.3137832930079,417.3137832930079,176.92659763095435,420.2996837620158,num_5,1,1.448469513,0.26403635705355555,,,,,,,,,,,,,,,,,,,,CBAS0004,1,2024-12-11_13h44.35.528,ObjectScenePairTask_local_study2,2024.1.4,None,2024-12-11 13h45.01.620014 -0500
instructions/Slide006.jpeg,study/imagelist_pair_study1.xlsx,study/images/Pair4_1.jpeg,2.951566686265909,num_5,0,0,0,0,0,2,2,3,0,3,3,3,420.3066054160008,,,,,,,,,,,,,,420.30127089994494,420.3066054160008,423.26825548300985,423.2496403850382,423.24966217402834,423.26825548300985,423.26825548300985,182.8809375950368,426.25443026493303,num_5,1,1.2140300970058888,0.2640033420175314,,,,,,,,,,,,,,,,,,,,CBAS0004,1,2024-12-11_13h44.35.528,ObjectScenePairTask_local_study2,2024.1.4,None,2024-12-11 13h45.01.620014 -0500
instructions/Slide006.jpeg,study/imagelist_pair_study1.xlsx,study/images/Pair1_1.jpeg,2.7747730895760014,num_8,0,0,0,0,0,2,2,3,0,4,4,0,426.2642434539739,,,,,,,,,,,,,,426.25597261893563,426.2642434539739,429.05199230404105,429.0312286859844,429.03125502797775,429.05199230404105,429.05199230404105,188.66482097597327,432.03547399898525,num_8,1,0.9743632640456781,0.27194382599554956,,,,,,,,,,,,,,,,,,,,CBAS0004,1,2024-12-11_13h44.35.528,ObjectScenePairTask_local_study2,2024.1.4,None,2024-12-11 13h45.01.620014 -0500
instructions/Slide006.jpeg,study/imagelist_pair_study1.xlsx,study/images/Pair14_1.jpeg,2.7453401693542876,num_5,0,0,0,0,0,2,2,3,0,5,5,13,432.04617653996684,,,,,,,,,,,,,,432.03684909897856,432.04617653996684,434.80643302493263,434.7803849070333,434.7804305900354,434.80643302493263,434.80643302493263,194.41957722604275,437.7950927900383,num_5,1,1.2678605440305546,0.31199474597815424,,,,,,,,,,,,,,,,,,,,CBAS0004,1,2024-12-11_13h44.35.528,ObjectScenePairTask_local_study2,2024.1.4,None,2024-12-11 13h45.01.620014 -0500
instructions/Slide006.jpeg,study/imagelist_pair_study1.xlsx,study/images/Pair8_1.jpeg,1.900661737,num_8,0,0,0,0,0,2,2,3,0,6,6,7,437.80412547895685,,,,,,,,,,,,,,437.79722293198574,437.80412547895685,439.71765112294815,439.695724,439.6957561749732,439.71765112294815,439.71765112294815,199.33066374994814,442.7000165139325,num_8,1,1.9086870820028707,0.2639798140153289,,,,,,,,,,,,,,,,,,,,CBAS0004,1,2024-12-11_13h44.35.528,ObjectScenePairTask_local_study2,2024.1.4,None,2024-12-11 13h45.01.620014 -0500
instructions/Slide006.jpeg,study/imagelist_pair_study1.xlsx,study/images/Pair9_1.jpeg,2.4481087706488074,num_5,0,0,0,0,0,2,2,3,0,7,7,8,442.7098993189866,,,,,,,,,,,,,,442.70131755503826,442.7098993189866,445.1681466830196,445.14448148198426,445.1445286850212,445.1681466830196,445.1681466830196,204.78092153405305,448.1477482810151,num_5,1,1.5541822139639407,0.2719682500464842,,,,,,,,,,,,,,,,,,,,CBAS0004,1,2024-12-11_13h44.35.528,ObjectScenePairTask_local_study2,2024.1.4,None,2024-12-11 13h45.01.620014 -0500
instructions/Slide006.jpeg,study/imagelist_pair_study1.xlsx,study/images/Pair5_1.jpeg,1.445217057241547,num_8,0,0,0,0,0,2,2,3,0,8,8,4,448.1579676970141,,,,,,,,,,,,,,448.1484651849605,448.1579676970141,449.6197431170149,449.5923842919292,449.5924176509725,449.6197431170149,449.6197431170149,209.23264029994607,452.59725122503005,num_8,1,1.110529075958766,0.2960890290560201,,,,,,,,,,,,,,,,,,,,CBAS0004,1,2024-12-11_13h44.35.528,ObjectScenePairTask_local_study2,2024.1.4,None,2024-12-11 13h45.01.620014 -0500
instructions/Slide006.jpeg,study/imagelist_pair_study1.xlsx,study/images/Pair6_1.jpeg,1.5151691182010452,num_5,0,0,0,0,0,2,2,3,0,9,9,5,452.60715414304286,,,,,,,,,,,,,,452.5985533639323,452.60715414304286,454.12607097194996,454.1080193229718,454.10805009596515,454.12607097194996,454.12607097194996,213.73884729400743,457.11200255400036,num_5,1,1.7642377250595018,0.27207706798799336,,,,,,,,,,,,,,,,,,,,CBAS0004,1,2024-12-11_13h44.35.528,ObjectScenePairTask_local_study2,2024.1.4,None,2024-12-11 13h45.01.620014 -0500
instructions/Slide006.jpeg,study/imagelist_pair_study1.xlsx,study/images/Pair11_1.jpeg,1.4440167664362138,num_8,0,0,0,0,0,2,2,3,0,10,10,10,457.1227562749991,,,,,,,,,,,,,,457.1133256290341,457.1227562749991,458.5823443320114,458.5572814659681,458.55731442803517,458.5823443320114,458.5823443320114,218.19505048904102,461.56115672993474,num_5,0,1.6519732529995963,0.27199959894642234,,,,,,,,,,,,,,,,,,,,CBAS0004,1,2024-12-11_13h44.35.528,ObjectScenePairTask_local_study2,2024.1.4,None,2024-12-11 13h45.01.620014 -0500
instructions/Slide006.jpeg,study/imagelist_pair_study1.xlsx,study/images/Pair2_1.jpeg,2.267154844388127,num_8,0,0,0,0,0,2,2,3,0,11,11,1,461.5711071710102,,,,,,,,,,,,,,461.5622658650391,461.5711071710102,463.84713136893697,463.82247096602805,463.82250289293006,463.84713136893697,463.84713136893697,223.4598007230088,466.82703537796624,num_8,1,1.1791457840008661,0.28803845203947276,,,,,,,,,,,,,,,,,,,,CBAS0004,1,2024-12-11_13h44.35.528,ObjectScenePairTask_local_study2,2024.1.4,None,2024-12-11 13h45.01.620014 -0500
instructions/Slide006.jpeg,study/imagelist_pair_study1.xlsx,study/images/Pair13_1.jpeg,2.1608979942810542,num_8,0,0,0,0,0,2,2,3,0,12,12,12,466.83732775598764,,,,,,,,,,,,,,466.8281282869866,466.83732775598764,469.01133563392796,468.98771033994853,468.9877361539984,469.01133563392796,469.01133563392796,228.6241858219728,471.9910734510049,num_8,1,0.9990301909856498,0.2479278709506616,,,,,,,,,,,,,,,,,,,,CBAS0004,1,2024-12-11_13h44.35.528,ObjectScenePairTask_local_study2,2024.1.4,None,2024-12-11 13h45.01.620014 -0500
instructions/Slide006.jpeg,study/imagelist_pair_study1.xlsx,study/images/Pair10_1.jpeg,2.664357674563501,num_5,0,0,0,0,0,2,2,3,0,13,13,9,472.00240895093884,,,,,,,,,,,,,,471.99242642801255,472.00240895093884,474.6754714900162,474.6529780529672,474.6530098710209,474.6754714900162,474.6754714900162,234.28828949097078,477.6554888599785,num_5,1,1.4548571970080957,0.2719820929924026,,,,,,,,,,,,,,,,,,,,CBAS0004,1,2024-12-11_13h44.35.528,ObjectScenePairTask_local_study2,2024.1.4,None,2024-12-11 13h45.01.620014 -0500
instructions/Slide006.jpeg,study/imagelist_pair_study1.xlsx,,,,0,0,0,0,0,2,2,3,,,,,,,,,,,,,,,,,,,,,,,,,,,,,,,,,,,,,,,,,,,,,,,,,,,CBAS0004,1,2024-12-11_13h44.35.528,ObjectScenePairTask_local_study2,2024.1.4,None,2024-12-11 13h45.01.620014 -0500
instructions/Slide006.jpeg,study/imagelist_pair_study9.xlsx,study/images/Pair146_1.jpeg,1.5010439063024898,num_5,0,0,0,0,0,3,3,1,0,0,0,13,482.9290210889885,,,,,,477.7080143049825,477.74182071594987,477.74182071594987,482.90118994098157,242.51326586096548,num_2,5.156568328035064,None,482.91616035602055,482.9290210889885,484.4415742729325,484.4167629700387,484.4167959659826,484.4415742729325,484.4415742729325,244.05452094704378,487.41864013893064,num_8,0,1.0087605660082772,0.23193300003185868,,,,,,,,,,,,,,,,,,,,CBAS0004,1,2024-12-11_13h44.35.528,ObjectScenePairTask_local_study2,2024.1.4,None,2024-12-11 13h45.01.620014 -0500
instructions/Slide006.jpeg,study/imagelist_pair_study9.xlsx,study/images/Pair144_1.jpeg,1.4744743226508013,num_5,0,0,0,0,0,3,3,1,0,1,1,12,487.4308466849616,,,,,,,,,,,,,,487.4195103070233,487.4308466849616,488.9212408079766,488.8988072309876,488.8988400560338,488.9212408079766,488.9212408079766,248.5341153179761,491.90244306100067,num_8,0,1.4651060629403219,0.1439451490296051,,,,,,,,,,,,,,,,,,,,CBAS0004,1,2024-12-11_13h44.35.528,ObjectScenePairTask_local_study2,2024.1.4,None,2024-12-11 13h45.01.620014 -0500
instructions/Slide006.jpeg,study/imagelist_pair_study9.xlsx,study/images/Pair135_1.jpeg,1.267307814364041,num_5,0,0,0,0,0,3,3,1,0,2,2,4,491.913776,,,,,,,,,,,,,,491.9035523670027,491.913776,493.19485434901435,493.1693543669535,493.1693869919982,493.19485434901435,493.19485434901435,252.8077229700284,496.17914800997823,num_5,1,0.9274645500117913,0.27200369094498456,,,,,,,,,,,,,,,,,,,,CBAS0004,1,2024-12-11_13h44.35.528,ObjectScenePairTask_local_study2,2024.1.4,None,2024-12-11 13h45.01.620014 -0500
instructions/Slide006.jpeg,study/imagelist_pair_study9.xlsx,study/images/Pair138_1.jpeg,1.1221654901278264,num_5,0,0,0,0,0,3,3,1,0,3,3,7,496.18649895396084,,,,,,,,,,,,,,496.1810894,496.18649895396084,497.31428237096407,497.2967217749683,497.29675553098787,497.31428237096407,497.31428237096407,256.92711765295826,500.30035111296456,num_5,1,1.6400276300264522,0.296031502,,,,,,,,,,,,,,,,,,,,CBAS0004,1,2024-12-11_13h44.35.528,ObjectScenePairTask_local_study2,2024.1.4,None,2024-12-11 13h45.01.620014 -0500
instructions/Slide006.jpeg,study/imagelist_pair_study9.xlsx,study/images/Pair132_1.jpeg,1.3007566664388521,num_5,0,0,0,0,0,3,3,1,0,4,4,3,500.3111614580266,,,,,,,,,,,,,,500.30147307994775,500.3111614580266,501.6231765470002,501.5960867810063,501.59613527101465,501.6231765470002,501.6231765470002,261.23606855398975,504.5995522090234,num_5,1,2.2110923880245537,0.3279696590034291,,,,,,,,,,,,,,,,,,,,CBAS0004,1,2024-12-11_13h44.35.528,ObjectScenePairTask_local_study2,2024.1.4,None,2024-12-11 13h45.01.620014 -0500
instructions/Slide006.jpeg,study/imagelist_pair_study9.xlsx,study/images/Pair137_1.jpeg,1.9273402975504907,num_5,0,0,0,0,0,3,3,1,0,5,5,6,504.60981058201287,,,,,,,,,,,,,,504.6006805129582,504.60981058201287,506.5489862,506.5275034389924,506.52753626799677,506.5489862,506.5489862,266.1620001,509.5318209739635,num_5,1,0.9253722110297531,0.26393876993097365,,,,,,,,,,,,,,,,,,,,CBAS0004,1,2024-12-11_13h44.35.528,ObjectScenePairTask_local_study2,2024.1.4,None,2024-12-11 13h45.01.620014 -0500
instructions/Slide006.jpeg,study/imagelist_pair_study9.xlsx,study/images/Pair130_1.jpeg,2.16779269,num_5,0,0,0,0,0,3,3,1,0,6,6,1,509.5420112060383,,,,,,,,,,,,,,509.5329278470017,509.5420112060383,511.72064913995564,511.69873959594406,511.6987717199372,511.72064913995564,511.72064913995564,271.3336230679415,514.7075083,num_5,1,1.1215763030340895,0.36799545492976904,,,,,,,,,,,,,,,,,,,,CBAS0004,1,2024-12-11_13h44.35.528,ObjectScenePairTask_local_study2,2024.1.4,None,2024-12-11 13h45.01.620014 -0500
instructions/Slide006.jpeg,study/imagelist_pair_study9.xlsx,study/images/Pair129_1.jpeg,1.8570570536892308,num_8,0,0,0,0,0,3,3,1,0,7,7,0,514.7153553949902,,,,,,,,,,,,,,514.7097807909595,514.7153553949902,516.5817048,516.5584573809756,516.5584902249975,516.5817048,516.5817048,276.19439636694733,519.5616191,num_8,1,1.132625833968632,0.26399568596389145,,,,,,,,,,,,,,,,,,,,CBAS0004,1,2024-12-11_13h44.35.528,ObjectScenePairTask_local_study2,2024.1.4,None,2024-12-11 13h45.01.620014 -0500
instructions/Slide006.jpeg,study/imagelist_pair_study9.xlsx,study/images/Pair136_1.jpeg,1.3028896342976468,num_5,0,0,0,0,0,3,3,1,0,8,8,5,519.5727599549573,,,,,,,,,,,,,,519.5625504780328,519.5727599549573,520.8794966,520.8626053780317,520.8626325549558,520.8794966,520.8794966,280.49231747095473,523.8715985639719,num_5,1,1.3388403629651293,0.3279675949597731,,,,,,,,,,,,,,,,,,,,CBAS0004,1,2024-12-11_13h44.35.528,ObjectScenePairTask_local_study2,2024.1.4,None,2024-12-11 13h45.01.620014 -0500
instructions/Slide006.jpeg,study/imagelist_pair_study9.xlsx,study/images/Pair131_1.jpeg,2.4663644954099095,num_8,0,0,0,0,0,3,3,1,0,9,9,2,523.8798323459923,,,,,,,,,,,,,,523.8736347309314,523.8798323459923,526.3634213389596,526.3392284639413,526.3392613,526.3634213389596,526.3634213389596,285.9763303969521,529.3435854460113,num_5,0,1.4229384741047397,0.29597674,,,,,,,,,,,,,,,,,,,,CBAS0004,1,2024-12-11_13h44.35.528,ObjectScenePairTask_local_study2,2024.1.4,None,2024-12-11 13h45.01.620014 -0500
instructions/Slide006.jpeg,study/imagelist_pair_study9.xlsx,study/images/Pair142_1.jpeg,2.202981078,num_5,0,0,0,0,0,3,3,1,0,10,10,10,529.3529865880264,,,,,,,,,,,,,,529.3449286749819,529.3529865880264,531.5651366179809,531.5439464,531.5439797269646,531.5651366179809,531.5651366179809,291.1781530570006,534.5524868339999,num_5,1,1.3011955419788137,0.3520270950393751,,,,,,,,,,,,,,,,,,,,CBAS0004,1,2024-12-11_13h44.35.528,ObjectScenePairTask_local_study2,2024.1.4,None,2024-12-11 13h45.01.620014 -0500
instructions/Slide006.jpeg,study/imagelist_pair_study9.xlsx,study/images/Pair143_1.jpeg,1.8759712206592578,num_5,0,0,0,0,0,3,3,1,0,11,11,11,534.5586343939649,,,,,,,,,,,,,,534.5533352519851,534.5586343939649,536.4368502609432,536.4185710960301,536.4185889649671,536.4368502609432,536.4368502609432,296.0495988340117,539.4236554,num_5,1,1.9415433830581605,0.3519122189609334,,,,,,,,,,,,,,,,,,,,CBAS0004,1,2024-12-11_13h44.35.528,ObjectScenePairTask_local_study2,2024.1.4,None,2024-12-11 13h45.01.620014 -0500
instructions/Slide006.jpeg,study/imagelist_pair_study9.xlsx,study/images/Pair139_1.jpeg,1.6978845582859572,num_8,0,0,0,0,0,3,3,1,0,12,12,8,539.4333244069712,,,,,,,,,,,,,,539.4249506639317,539.4333244069712,541.1417989770416,541.1182761560194,541.1183083599899,541.1417989770416,541.1417989770416,300.75468373997137,544.1229198669316,num_8,1,1.1244432989042252,0.2480273590190336,,,,,,,,,,,,,,,,,,,,CBAS0004,1,2024-12-11_13h44.35.528,ObjectScenePairTask_local_study2,2024.1.4,None,2024-12-11 13h45.01.620014 -0500
instructions/Slide006.jpeg,study/imagelist_pair_study9.xlsx,study/images/Pair141_1.jpeg,2.4669518091313556,num_8,0,0,0,0,0,3,3,1,0,13,13,9,544.1333465159405,,,,,,,,,,,,,,544.1245213339571,544.1333465159405,546.6145208489615,546.5891771509778,546.5892097,546.6145208489615,546.6145208489615,306.22740932099987,549.5978085439419,num_8,1,1.1238200570223853,0.22392026998568326,,,,,,,,,,,,,,,,,,,,CBAS0004,1,2024-12-11_13h44.35.528,ObjectScenePairTask_local_study2,2024.1.4,None,2024-12-11 13h45.01.620014 -0500
instructions/Slide006.jpeg,study/imagelist_pair_study9.xlsx,,,,0,0,0,0,0,3,3,1,,,,,,,,,,,,,,,,,,,,,,,,,,,,,,,,,,,,,,,,,,,,,,,,,,,CBAS0004,1,2024-12-11_13h44.35.528,ObjectScenePairTask_local_study2,2024.1.4,None,2024-12-11 13h45.01.620014 -0500
,,,,,0,0,0,0,,,,,,,,,,,,,,,,,,,,,,,,,,,,,,,,,,,,,,549.7169586609816,549.7212099230383,551.5856751409592,592.5883242909331,space,40.998801919980906,None,592.5888252559816,592.5963920790236,594.5865043950034,618.4642859619344,num_divide,23.871815828955732,None,,,,CBAS0004,1,2024-12-11_13h44.35.528,ObjectScenePairTask_local_study2,2024.1.4,None,2024-12-11 13h45.01.620014 -0500
instructions/Slide006.jpeg,study/imagelist_pair_study10.xlsx,study/images/Pair147_1.jpeg,2.9770602157760075,num_8,1,0,1,0,0,0,0,2,0,0,0,0,625.6579945610138,,,,,,618.4735061059473,618.5129150459543,618.5129150459543,625.6292039250256,7.164443499990739,num_2,7.113469478907064,None,625.6461087909993,625.6579945610138,628.6556275209878,628.6282666119514,628.6282989189494,628.6556275209878,628.6556275209878,10.191605945001356,631.6319656,num_8,1,1.2746737230336294,0.22403660393320024,,,,,,,,,,,,,,,,,,,,CBAS0004,1,2024-12-11_13h44.35.528,ObjectScenePairTask_local_study2,2024.1.4,None,2024-12-11 13h45.01.620014 -0500
instructions/Slide006.jpeg,study/imagelist_pair_study10.xlsx,study/images/Pair161_1.jpeg,1.191726874290812,num_5,1,0,1,0,0,0,0,2,0,1,1,13,631.6420693759574,,,,,,,,,,,,,,631.6336157,631.6420693759574,632.8490165009862,632.8269451389788,632.8269825390307,632.8490165009862,632.8490165009862,14.385172998998314,635.8314521829598,num_5,1,1.1292864849092439,0.24800522706937045,,,,,,,,,,,,,,,,,,,,CBAS0004,1,2024-12-11_13h44.35.528,ObjectScenePairTask_local_study2,2024.1.4,None,2024-12-11 13h45.01.620014 -0500
instructions/Slide006.jpeg,study/imagelist_pair_study10.xlsx,study/images/Pair148_1.jpeg,1.0016078969912114,num_5,1,0,1,0,0,0,0,2,0,2,2,1,635.8407681679819,,,,,,,,,,,,,,635.8326075349469,635.8407681679819,636.8463431469863,636.8257645579288,636.8258061209926,636.8463431469863,636.8463431469863,18.382482873974368,639.8301148019964,num_5,1,1.556004318059422,0.24799387995153666,,,,,,,,,,,,,,,,,,,,CBAS0004,1,2024-12-11_13h44.35.528,ObjectScenePairTask_local_study2,2024.1.4,None,2024-12-11 13h45.01.620014 -0500
instructions/Slide006.jpeg,study/imagelist_pair_study10.xlsx,study/images/Pair158_1.jpeg,1.1885527912926754,num_5,1,0,1,0,0,0,0,2,0,3,3,10,639.8403421959374,,,,,,,,,,,,,,639.8316898540361,639.8403421959374,641.0321542810416,641.0132425989723,641.0132758269319,641.0321542810416,641.0321542810416,22.56824508891441,644.0216416149633,num_5,1,1.5621343990787864,0.2720210659317672,,,,,,,,,,,,,,,,,,,,CBAS0004,1,2024-12-11_13h44.35.528,ObjectScenePairTask_local_study2,2024.1.4,None,2024-12-11 13h45.01.620014 -0500
instructions/Slide006.jpeg,study/imagelist_pair_study10.xlsx,study/images/Pair149_1.jpeg,2.0298057403252328,num_8,1,0,1,0,0,0,0,2,0,4,4,2,644.0274331900291,,,,,,,,,,,,,,644.0225891179871,644.0274331900291,646.0641665569274,646.0460680059623,646.0460944869556,646.0641665569274,646.0641665569274,27.600158530985937,649.0542709559668,num_5,0,1.898198344,0.24800279189366847,,,,,,,,,,,,,,,,,,,,CBAS0004,1,2024-12-11_13h44.35.528,ObjectScenePairTask_local_study2,2024.1.4,None,2024-12-11 13h45.01.620014 -0500
instructions/Slide006.jpeg,study/imagelist_pair_study10.xlsx,study/images/Pair151_1.jpeg,1.8973620186789388,num_8,1,0,1,0,0,0,0,2,0,5,5,4,649.0617436809698,,,,,,,,,,,,,,649.0556908349972,649.0617436809698,650.9593744620215,650.9431569549488,650.9431799999438,650.9593744620215,650.9593744620215,32.49537295696791,653.9528208499542,num_8,1,1.930905570043251,0.24802996101789176,,,,,,,,,,,,,,,,,,,,CBAS0004,1,2024-12-11_13h44.35.528,ObjectScenePairTask_local_study2,2024.1.4,None,2024-12-11 13h45.01.620014 -0500
instructions/Slide006.jpeg,study/imagelist_pair_study10.xlsx,study/images/Pair154_1.jpeg,1.4821163158894488,num_5,1,0,1,0,0,0,0,2,0,6,6,7,653.9589964399347,,,,,,,,,,,,,,653.9541052679997,653.9589964399347,655.4537995220162,655.4265653330367,655.426598,655.4537995220162,655.4537995220162,36.98990425490774,658.4350395409856,num_5,1,1.1405340490164235,0.29594207101035863,,,,,,,,,,,,,,,,,,,,CBAS0004,1,2024-12-11_13h44.35.528,ObjectScenePairTask_local_study2,2024.1.4,None,2024-12-11 13h45.01.620014 -0500
instructions/Slide006.jpeg,study/imagelist_pair_study10.xlsx,study/images/Pair155_1.jpeg,1.4944444883141237,num_5,1,0,1,0,0,0,0,2,0,7,7,8,658.4420626109932,,,,,,,,,,,,,,658.4364725149935,658.4420626109932,659.9511969690211,659.9254910859745,659.9255240749335,659.9511969690211,659.9511969690211,41.48739820800256,662.9338816000381,num_5,1,1.6031133719952777,0.24797366105485708,,,,,,,,,,,,,,,,,,,,CBAS0004,1,2024-12-11_13h44.35.528,ObjectScenePairTask_local_study2,2024.1.4,None,2024-12-11 13h45.01.620014 -0500
instructions/Slide006.jpeg,study/imagelist_pair_study10.xlsx,study/images/Pair159_1.jpeg,2.2660221942817618,num_5,1,0,1,0,0,0,0,2,0,8,8,11,662.941677,,,,,,,,,,,,,,662.9355195269454,662.941677,665.2193842299748,665.2014327780344,665.2014647169271,665.2193842299748,665.2193842299748,46.75549870193936,668.2053652779432,num_8,0,1.6389454350573942,0.2719752519624308,,,,,,,,,,,,,,,,,,,,CBAS0004,1,2024-12-11_13h44.35.528,ObjectScenePairTask_local_study2,2024.1.4,None,2024-12-11 13h45.01.620014 -0500
instructions/Slide006.jpeg,study/imagelist_pair_study10.xlsx,study/images/Pair157_1.jpeg,1.3635603328301809,num_5,1,0,1,0,0,0,0,2,0,9,9,9,668.2160063389456,,,,,,,,,,,,,,668.2065278339433,668.2160063389456,669.5845400430262,669.5665276959771,669.5665505119832,669.5845400430262,669.5845400430262,51.12057866691612,672.5711055189604,num_5,1,1.2818163989577442,0.30397533,,,,,,,,,,,,,,,,,,,,CBAS0004,1,2024-12-11_13h44.35.528,ObjectScenePairTask_local_study2,2024.1.4,None,2024-12-11 13h45.01.620014 -0500
instructions/Slide006.jpeg,study/imagelist_pair_study10.xlsx,study/images/Pair152_1.jpeg,1.3138766854112118,num_5,1,0,1,0,0,0,0,2,0,10,10,5,672.5809277499793,,,,,,,,,,,,,,672.5722380250227,672.5809277499793,673.9047845669556,673.8820281249937,673.8820583740016,673.9047845669556,673.9047845669556,55.440881286980584,676.8853347930126,num_5,1,2.2815254740417004,0.2720400639809668,,,,,,,,,,,,,,,,,,,,CBAS0004,1,2024-12-11_13h44.35.528,ObjectScenePairTask_local_study2,2024.1.4,None,2024-12-11 13h45.01.620014 -0500
instructions/Slide006.jpeg,study/imagelist_pair_study10.xlsx,study/images/Pair153_1.jpeg,1.344843379149973,num_8,1,0,1,0,0,0,0,2,0,11,11,6,676.8961313699838,,,,,,,,,,,,,,676.8862909650197,676.8961313699838,678.2515062049497,678.2310430549551,678.2311021,678.2515062049497,678.2515062049497,59.787611123989336,681.2337651030393,num_8,1,1.0868131440365687,0.20001552195753902,,,,,,,,,,,,,,,,,,,,CBAS0004,1,2024-12-11_13h44.35.528,ObjectScenePairTask_local_study2,2024.1.4,None,2024-12-11 13h45.01.620014 -0500
instructions/Slide006.jpeg,study/imagelist_pair_study10.xlsx,study/images/Pair150_1.jpeg,2.789048224283121,num_8,1,0,1,0,0,0,0,2,0,12,12,3,681.2459130579373,,,,,,,,,,,,,,681.2344671239844,681.2459130579373,684.0550623,684.0296581159346,684.0296913470374,684.0550623,684.0550623,65.59119410801213,687.0330724349478,num_8,1,1.6513443170115352,0.24791376804932952,,,,,,,,,,,,,,,,,,,,CBAS0004,1,2024-12-11_13h44.35.528,ObjectScenePairTask_local_study2,2024.1.4,None,2024-12-11 13h45.01.620014 -0500
instructions/Slide006.jpeg,study/imagelist_pair_study10.xlsx,study/images/Pair160_1.jpeg,2.2079954343734567,num_5,1,0,1,0,0,0,0,2,0,13,13,12,687.0434004879789,,,,,,,,,,,,,,687.0341598279774,687.0434004879789,689.2704643580364,689.2448807799956,689.2449158689706,689.2704643580364,689.2704643580364,70.80688193393871,692.2497166650137,num_5,1,1.0678578109946102,0.24800798390060663,,,,,,,,,,,,,,,,,,,,CBAS0004,1,2024-12-11_13h44.35.528,ObjectScenePairTask_local_study2,2024.1.4,None,2024-12-11 13h45.01.620014 -0500
instructions/Slide006.jpeg,study/imagelist_pair_study10.xlsx,,,,1,0,1,0,0,0,0,2,,,,,,,,,,,,,,,,,,,,,,,,,,,,,,,,,,,,,,,,,,,,,,,,,,,CBAS0004,1,2024-12-11_13h44.35.528,ObjectScenePairTask_local_study2,2024.1.4,None,2024-12-11 13h45.01.620014 -0500
instructions/Slide006.jpeg,study/imagelist_pair_study11.xlsx,study/images/Pair173_1.jpeg,2.780774248516312,num_8,1,0,1,0,0,1,1,1,0,0,0,11,695.7233526069904,,,,,,692.3342810999602,692.3694488949841,692.3694488949841,695.6990900399396,77.23433603800368,num_2,3.312890005065128,None,695.7146506459685,695.7233526069904,698.5179046109552,698.4927384459879,698.4927988,698.5179046109552,698.5179046109552,80.05400941998232,701.4961259840056,num_8,1,1.0524227978894487,0.18412315705791116,,,,,,,,,,,,,,,,,,,,CBAS0004,1,2024-12-11_13h44.35.528,ObjectScenePairTask_local_study2,2024.1.4,None,2024-12-11 13h45.01.620014 -0500
instructions/Slide006.jpeg,study/imagelist_pair_study11.xlsx,study/images/Pair167_1.jpeg,2.8685145737115563,num_8,1,0,1,0,0,1,1,1,0,1,1,5,701.5070210029371,,,,,,,,,,,,,,701.4977668059291,701.5070210029371,704.3852404200006,704.3646124009974,704.3646445620107,704.3852404200006,704.3852404200006,85.92134565,707.3718453450128,num_8,1,1.1850276819895953,0.2080545249627903,,,,,,,,,,,,,,,,,,,,CBAS0004,1,2024-12-11_13h44.35.528,ObjectScenePairTask_local_study2,2024.1.4,None,2024-12-11 13h45.01.620014 -0500
instructions/Slide006.jpeg,study/imagelist_pair_study11.xlsx,study/images/Pair172_1.jpeg,2.115332088,num_5,1,0,1,0,0,1,1,1,0,2,2,10,707.3796249279985,,,,,,,,,,,,,,707.3739611540223,707.3796249279985,709.5085742269875,709.4892323,709.4892597160069,709.5085742269875,709.5085742269875,91.04461744,712.4945476469584,num_5,1,1.1256976729491726,0.22404951404314488,,,,,,,,,,,,,,,,,,,,CBAS0004,1,2024-12-11_13h44.35.528,ObjectScenePairTask_local_study2,2024.1.4,None,2024-12-11 13h45.01.620014 -0500
instructions/Slide006.jpeg,study/imagelist_pair_study11.xlsx,study/images/Pair171_1.jpeg,1.1816541998218038,num_5,1,0,1,0,0,1,1,1,0,3,3,9,712.5035761159379,,,,,,,,,,,,,,712.4956792129669,712.5035761159379,713.6956552269403,713.6715254249284,713.6715582129546,713.6956552269403,713.6956552269403,95.23178404197097,716.6753503709333,num_5,1,1.586727611,0.22385487600695342,,,,,,,,,,,,,,,,,,,,CBAS0004,1,2024-12-11_13h44.35.528,ObjectScenePairTask_local_study2,2024.1.4,None,2024-12-11 13h45.01.620014 -0500
instructions/Slide006.jpeg,study/imagelist_pair_study11.xlsx,study/images/Pair166_1.jpeg,1.0493363639874003,num_5,1,0,1,0,0,1,1,1,0,4,4,4,716.6856992349494,,,,,,,,,,,,,,716.6764812839683,716.6856992349494,717.7398818189977,717.7204648359912,717.7204972939799,717.7398818189977,717.7398818189977,99.27615483198315,720.7245205839863,num_5,1,1.5744093039538711,0.20011928107123822,,,,,,,,,,,,,,,,,,,,CBAS0004,1,2024-12-11_13h44.35.528,ObjectScenePairTask_local_study2,2024.1.4,None,2024-12-11 13h45.01.620014 -0500
instructions/Slide006.jpeg,study/imagelist_pair_study11.xlsx,study/images/Pair168_1.jpeg,1.173442917264184,num_8,1,0,1,0,0,1,1,1,0,5,5,6,720.7346026429441,,,,,,,,,,,,,,720.7256614499493,720.7346026429441,721.9164808529895,721.8923773600254,721.8924087160267,721.9164808529895,721.9164808529895,103.4527036,724.9002997869393,num_8,1,0.8297464899951592,0.18396338203456253,,,,,,,,,,,,,,,,,,,,CBAS0004,1,2024-12-11_13h44.35.528,ObjectScenePairTask_local_study2,2024.1.4,None,2024-12-11 13h45.01.620014 -0500
instructions/Slide006.jpeg,study/imagelist_pair_study11.xlsx,study/images/Pair169_1.jpeg,2.1692303678682285,num_5,1,0,1,0,0,1,1,1,0,6,6,7,724.9076352779521,,,,,,,,,,,,,,724.9018782710191,724.9076352779521,727.0922316110227,727.0684016690357,727.0684393839911,727.0922316110227,727.0922316110227,108.62853449000977,730.0723537210142,num_5,1,1.9420651090331376,0.4000062409322709,,,,,,,,,,,,,,,,,,,,CBAS0004,1,2024-12-11_13h44.35.528,ObjectScenePairTask_local_study2,2024.1.4,None,2024-12-11 13h45.01.620014 -0500
instructions/Slide006.jpeg,study/imagelist_pair_study11.xlsx,study/images/Pair175_1.jpeg,1.0496567313234664,num_5,1,0,1,0,0,1,1,1,0,7,7,13,730.0820961160352,,,,,,,,,,,,,,730.0741759899538,730.0820961160352,731.1373928079847,731.1163433520123,731.1163855069317,731.1373928079847,731.1373928079847,112.67356846493203,734.1189622,num_5,1,1.0649226940004155,0.3359953690087423,,,,,,,,,,,,,,,,,,,,CBAS0004,1,2024-12-11_13h44.35.528,ObjectScenePairTask_local_study2,2024.1.4,None,2024-12-11 13h45.01.620014 -0500
instructions/Slide006.jpeg,study/imagelist_pair_study11.xlsx,study/images/Pair170_1.jpeg,1.3740176277462717,num_5,1,0,1,0,0,1,1,1,0,8,8,8,734.1304092,,,,,,,,,,,,,,734.1196563469712,734.1304092,735.5073678429471,735.4875998030184,735.4876270430395,735.5073678429471,735.5073678429471,117.04344037093688,738.4966472960077,num_5,1,1.1429469840368256,0.3279624340357259,,,,,,,,,,,,,,,,,,,,CBAS0004,1,2024-12-11_13h44.35.528,ObjectScenePairTask_local_study2,2024.1.4,None,2024-12-11 13h45.01.620014 -0500
instructions/Slide006.jpeg,study/imagelist_pair_study11.xlsx,study/images/Pair162_1.jpeg,2.294769015338935,num_8,1,0,1,0,0,1,1,1,0,9,9,0,738.5035029,,,,,,,,,,,,,,738.4981327289715,738.5035029,740.8117285040207,740.7872503410326,740.7872832180001,740.8117285040207,740.8117285040207,122.34827948990278,743.7958089,num_8,1,1.2467257349053398,0.24782985111232847,,,,,,,,,,,,,,,,,,,,CBAS0004,1,2024-12-11_13h44.35.528,ObjectScenePairTask_local_study2,2024.1.4,None,2024-12-11 13h45.01.620014 -0500
instructions/Slide006.jpeg,study/imagelist_pair_study11.xlsx,study/images/Pair174_1.jpeg,1.8382490531511533,num_5,1,0,1,0,0,1,1,1,0,10,10,12,743.8015133759473,,,,,,,,,,,,,,743.7966615239857,743.8015133759473,745.6530755,745.6295382,745.6295796469785,745.6530755,745.6530755,127.18960685294587,748.6328406169778,num_5,1,1.1731936049181968,0.31208783702459186,,,,,,,,,,,,,,,,,,,,CBAS0004,1,2024-12-11_13h44.35.528,ObjectScenePairTask_local_study2,2024.1.4,None,2024-12-11 13h45.01.620014 -0500
instructions/Slide006.jpeg,study/imagelist_pair_study11.xlsx,study/images/Pair164_1.jpeg,2.4851098593847283,num_5,1,0,1,0,0,1,1,1,0,11,11,2,748.6441483,,,,,,,,,,,,,,748.6336516060401,748.6441483,751.1426449229475,751.1176015730016,751.1176356190117,751.1426449229475,751.1426449229475,132.67920532391872,754.1257893210277,num_5,1,1.8916471920674667,0.3120269669452682,,,,,,,,,,,,,,,,,,,,CBAS0004,1,2024-12-11_13h44.35.528,ObjectScenePairTask_local_study2,2024.1.4,None,2024-12-11 13h45.01.620014 -0500
instructions/Slide006.jpeg,study/imagelist_pair_study11.xlsx,study/images/Pair165_1.jpeg,1.894062171401448,num_8,1,0,1,0,0,1,1,1,0,12,12,3,754.1330078609753,,,,,,,,,,,,,,754.1273525370052,754.1330078609753,756.0367647919338,756.0164640350267,756.0165132139809,756.0367647919338,756.0367647919338,137.5729420289863,759.0244730169652,num_8,1,2.053506819996983,0.21603444695938379,,,,,,,,,,,,,,,,,,,,CBAS0004,1,2024-12-11_13h44.35.528,ObjectScenePairTask_local_study2,2024.1.4,None,2024-12-11 13h45.01.620014 -0500
instructions/Slide006.jpeg,study/imagelist_pair_study11.xlsx,study/images/Pair163_1.jpeg,1.5833466290123772,num_8,1,0,1,0,0,1,1,1,0,13,13,1,759.0319787879707,,,,,,,,,,,,,,759.0262204529718,759.0319787879707,760.6248654619558,760.5996518,760.5996999059571,760.6248654619558,760.6248654619558,142.16121195594314,763.6065324220108,num_8,1,1.025410122005269,0.27197424601763487,,,,,,,,,,,,,,,,,,,,CBAS0004,1,2024-12-11_13h44.35.528,ObjectScenePairTask_local_study2,2024.1.4,None,2024-12-11 13h45.01.620014 -0500
instructions/Slide006.jpeg,study/imagelist_pair_study11.xlsx,,,,1,0,1,0,0,1,1,1,,,,,,,,,,,,,,,,,,,,,,,,,,,,,,,,,,,,,,,,,,,,,,,,,,,CBAS0004,1,2024-12-11_13h44.35.528,ObjectScenePairTask_local_study2,2024.1.4,None,2024-12-11 13h45.01.620014 -0500
instructions/Slide004.jpeg,study/imagelist_scene_study1.xlsx,study/images/Scn90_1.jpeg,2.0458608920489585,num_5,1,0,1,0,0,2,2,0,0,0,0,11,767.2764171740273,,,,,,763.6927496510325,763.7564716379857,763.7564716379857,767.2467469,148.78199342195876,num_2,3.4857988979201764,None,767.2636116989888,767.2764171740273,769.3262025850127,769.3063818969531,769.3064146960387,769.3262025850127,769.3262025850127,150.86236010293942,772.3116570599377,num_5,1,0.8761064310092479,0.23215822002384812,,,,,,,,,,,,,,,,,,,,CBAS0004,1,2024-12-11_13h44.35.528,ObjectScenePairTask_local_study2,2024.1.4,None,2024-12-11 13h45.01.620014 -0500
instructions/Slide004.jpeg,study/imagelist_scene_study1.xlsx,study/images/Scn5_1.jpeg,2.2424091766929752,num_5,1,0,1,0,0,2,2,0,0,1,1,4,772.3205621209927,,,,,,,,,,,,,,772.3133493289351,772.3205621209927,774.5782474050066,774.5552897,774.5553563,774.5782474050066,774.5782474050066,156.1146747029852,777.5585379099939,num_5,1,0.9520766410278156,0.24796634807717055,,,,,,,,,,,,,,,,,,,,CBAS0004,1,2024-12-11_13h44.35.528,ObjectScenePairTask_local_study2,2024.1.4,None,2024-12-11 13h45.01.620014 -0500
instructions/Slide004.jpeg,study/imagelist_scene_study1.xlsx,study/images/Scn68_1.jpeg,1.011906950047151,num_5,1,0,1,0,0,2,2,0,0,2,2,13,777.5696058180183,,,,,,,,,,,,,,777.5592297749827,777.5696058180183,778.5878108360339,778.5703724829946,778.5704004219733,778.5878108360339,778.5878108360339,160.12408908491489,781.5748798709828,num_5,1,0.9744161190465093,0.3920663499739021,,,,,,,,,,,,,,,,,,,,CBAS0004,1,2024-12-11_13h44.35.528,ObjectScenePairTask_local_study2,2024.1.4,None,2024-12-11 13h45.01.620014 -0500
instructions/Slide004.jpeg,study/imagelist_scene_study1.xlsx,study/images/Scn9_1.jpeg,1.5974611704171884,num_8,1,0,1,0,0,2,2,0,0,3,3,8,781.5846921,,,,,,,,,,,,,,781.5760094849393,781.5846921,783.1876691849902,783.1691609920235,783.1691819,783.1876691849902,783.1876691849902,164.7241464,786.1730910659535,num_8,1,0.9186547349672765,0.2079626020276919,,,,,,,,,,,,,,,,,,,,CBAS0004,1,2024-12-11_13h44.35.528,ObjectScenePairTask_local_study2,2024.1.4,None,2024-12-11 13h45.01.620014 -0500
instructions/Slide004.jpeg,study/imagelist_scene_study1.xlsx,study/images/Scn1_1.jpeg,1.4592308148670208,num_8,1,0,1,0,0,2,2,0,0,4,4,0,786.1834682120243,,,,,,,,,,,,,,786.1740379079711,786.1834682120243,787.6584993799916,787.6352043669904,787.6352382899495,787.6584993799916,787.6584993799916,169.19505118695088,790.6391262989491,num_5,0,1.071814423892647,0.2718987630214542,,,,,,,,,,,,,,,,,,,,CBAS0004,1,2024-12-11_13h44.35.528,ObjectScenePairTask_local_study2,2024.1.4,None,2024-12-11 13h45.01.620014 -0500
instructions/Slide004.jpeg,study/imagelist_scene_study1.xlsx,study/images/Scn6_1.jpeg,2.4448943426720913,num_8,1,0,1,0,0,2,2,0,0,5,5,5,790.6494243639754,,,,,,,,,,,,,,790.6402719150065,790.6494243639754,793.1074638960417,793.0836588839302,793.0836911,793.1074638960417,793.1074638960417,174.64370777795557,796.0873711300083,num_8,1,0.9909296800615266,0.27195786498486996,,,,,,,,,,,,,,,,,,,,CBAS0004,1,2024-12-11_13h44.35.528,ObjectScenePairTask_local_study2,2024.1.4,None,2024-12-11 13h45.01.620014 -0500
instructions/Slide004.jpeg,study/imagelist_scene_study1.xlsx,study/images/Scn10_1.jpeg,1.8452153533254747,num_8,1,0,1,0,0,2,2,0,0,6,6,9,796.0973864339758,,,,,,,,,,,,,,796.0885849039769,796.0973864339758,797.9556318609975,797.9324655029923,797.9324929729337,797.9556318609975,797.9556318609975,179.49191794800572,800.9360124239465,num_8,1,1.4386321530910209,0.22407751099672168,,,,,,,,,,,,,,,,,,,,CBAS0004,1,2024-12-11_13h44.35.528,ObjectScenePairTask_local_study2,2024.1.4,None,2024-12-11 13h45.01.620014 -0500
instructions/Slide004.jpeg,study/imagelist_scene_study1.xlsx,study/images/Scn4_1.jpeg,2.665644129022879,num_8,1,0,1,0,0,2,2,0,0,7,7,3,800.9461439,,,,,,,,,,,,,,800.9371154969558,800.9461439,803.6208081740187,803.5967527269386,803.5967791540315,803.6208081740187,803.6208081740187,185.15694584790617,806.6014259,num_8,1,1.0695122020551935,0.20798222289886326,,,,,,,,,,,,,,,,,,,,CBAS0004,1,2024-12-11_13h44.35.528,ObjectScenePairTask_local_study2,2024.1.4,None,2024-12-11 13h45.01.620014 -0500
instructions/Slide004.jpeg,study/imagelist_scene_study1.xlsx,study/images/Scn33_1.jpeg,2.646920948258333,num_8,1,0,1,0,0,2,2,0,0,8,8,12,806.6106360360282,,,,,,,,,,,,,,806.6026602230268,806.6106360360282,809.2690091279801,809.2456167560304,809.2456506190356,809.2690091279801,809.2690091279801,190.80528962693643,812.2501036,num_8,1,0.9332957389997318,0.20796183799393475,,,,,,,,,,,,,,,,,,,,CBAS0004,1,2024-12-11_13h44.35.528,ObjectScenePairTask_local_study2,2024.1.4,None,2024-12-11 13h45.01.620014 -0500
instructions/Slide004.jpeg,study/imagelist_scene_study1.xlsx,study/images/Scn11_1.jpeg,2.979794145098646,num_5,1,0,1,0,0,2,2,0,0,9,9,10,812.2595609070268,,,,,,,,,,,,,,812.2512403889559,812.2595609070268,815.2503034960246,815.2275203210302,815.2275486689759,815.2503034960246,815.2503034960246,196.7867019099649,818.2310261169914,num_5,1,1.0959327940363437,0.24799622094724327,,,,,,,,,,,,,,,,,,,,CBAS0004,1,2024-12-11_13h44.35.528,ObjectScenePairTask_local_study2,2024.1.4,None,2024-12-11 13h45.01.620014 -0500
instructions/Slide004.jpeg,study/imagelist_scene_study1.xlsx,study/images/Scn2_1.jpeg,2.9605550363282713,num_5,1,0,1,0,0,2,2,0,0,10,10,1,818.2420160570182,,,,,,,,,,,,,,818.2321211949456,818.2420160570182,821.2155320539605,821.1926894389326,821.1927219619974,821.2155320539605,821.2155320539605,202.75186659093015,824.1950383449439,num_5,1,1.1627641329541802,0.2480124239809811,,,,,,,,,,,,,,,,,,,,CBAS0004,1,2024-12-11_13h44.35.528,ObjectScenePairTask_local_study2,2024.1.4,None,2024-12-11 13h45.01.620014 -0500
instructions/Slide004.jpeg,study/imagelist_scene_study1.xlsx,study/images/Scn8_1.jpeg,2.912883501085258,num_5,1,0,1,0,0,2,2,0,0,11,11,7,824.2064564,,,,,,,,,,,,,,824.1957225910155,824.2064564,827.1320092619862,827.1085395120317,827.1085733659565,827.1320092619862,827.1320092619862,208.66892567498144,830.1125959210331,num_5,1,0.9422973820473999,0.26404208794701844,,,,,,,,,,,,,,,,,,,,CBAS0004,1,2024-12-11_13h44.35.528,ObjectScenePairTask_local_study2,2024.1.4,None,2024-12-11 13h45.01.620014 -0500
instructions/Slide004.jpeg,study/imagelist_scene_study1.xlsx,study/images/Scn7_1.jpeg,2.2458250898919214,num_5,1,0,1,0,0,2,2,0,0,12,12,6,830.1216697229538,,,,,,,,,,,,,,830.114146,830.1216697229538,832.3796395800309,832.3563471,832.3563792250352,832.3796395800309,832.3796395800309,213.91606752795633,835.3601833169814,num_5,1,0.8706928169121966,0.31194654502905905,,,,,,,,,,,,,,,,,,,,CBAS0004,1,2024-12-11_13h44.35.528,ObjectScenePairTask_local_study2,2024.1.4,None,2024-12-11 13h45.01.620014 -0500
instructions/Slide004.jpeg,study/imagelist_scene_study1.xlsx,study/images/Scn3_1.jpeg,1.4200276633905813,num_5,1,0,1,0,0,2,2,0,0,13,13,2,835.3705708839698,,,,,,,,,,,,,,835.3612730579916,835.3705708839698,836.7987001879374,836.7786317799473,836.7786652880022,836.7987001879374,836.7987001879374,218.33530094998423,839.7863007889828,num_5,1,0.8515918280463666,0.23198097094427794,,,,,,,,,,,,,,,,,,,,CBAS0004,1,2024-12-11_13h44.35.528,ObjectScenePairTask_local_study2,2024.1.4,None,2024-12-11 13h45.01.620014 -0500
instructions/Slide004.jpeg,study/imagelist_scene_study1.xlsx,,,,1,0,1,0,0,2,2,0,,,,,,,,,,,,,,,,,,,,,,,,,,,,,,,,,,,,,,,,,,,,,,,,,,,CBAS0004,1,2024-12-11_13h44.35.528,ObjectScenePairTask_local_study2,2024.1.4,None,2024-12-11 13h45.01.620014 -0500
instructions/Slide006.jpeg,study/imagelist_pair_study2.xlsx,study/images/Pair24_1.jpeg,1.1438424012364035,num_8,1,0,1,0,0,3,3,3,0,0,0,7,843.7071735,,,,,,839.8790703089908,839.9129345440306,839.9129345440306,843.6773543009767,225.21260056400206,num_2,3.761450922000222,None,843.6946470460389,843.7071735,844.8597556030145,844.8362888729898,844.8363306450192,844.8597556030145,844.8597556030145,226.3960387549596,847.8380288749468,num_8,1,1.3425216359319165,0.2080330429598689,,,,,,,,,,,,,,,,,,,,CBAS0004,1,2024-12-11_13h44.35.528,ObjectScenePairTask_local_study2,2024.1.4,None,2024-12-11 13h45.01.620014 -0500
instructions/Slide006.jpeg,study/imagelist_pair_study2.xlsx,study/images/Pair16_1.jpeg,2.2676970908964007,num_5,1,0,1,0,0,3,3,3,0,1,1,0,847.8495246609673,,,,,,,,,,,,,,847.8388751329621,847.8495246609673,850.1256045739865,850.1012279640418,850.1012619730318,850.1256045739865,850.1256045739865,231.66219409299083,853.1061903709779,num_5,1,2.004651647992432,0.2880079720634967,,,,,,,,,,,,,,,,,,,,CBAS0004,1,2024-12-11_13h44.35.528,ObjectScenePairTask_local_study2,2024.1.4,None,2024-12-11 13h45.01.620014 -0500
instructions/Slide006.jpeg,study/imagelist_pair_study2.xlsx,study/images/Pair25_1.jpeg,2.784182157568866,num_8,1,0,1,0,0,3,3,3,0,2,2,8,853.1151428,,,,,,,,,,,,,,853.1073244350264,853.1151428,855.9065541,855.8835525389295,855.8835942320293,855.9065541,855.9065541,237.44304514594842,858.8872969319345,num_8,1,0.8076585220405832,0.19995809299871325,,,,,,,,,,,,,,,,,,,,CBAS0004,1,2024-12-11_13h44.35.528,ObjectScenePairTask_local_study2,2024.1.4,None,2024-12-11 13h45.01.620014 -0500
instructions/Slide006.jpeg,study/imagelist_pair_study2.xlsx,study/images/Pair21_1.jpeg,2.890029927110654,num_5,1,0,1,0,0,3,3,3,0,3,3,4,858.8976478229742,,,,,,,,,,,,,,858.8884172809776,858.8976478229742,861.8051600919571,861.7813806929626,861.7814076000359,861.8051600919571,861.8051600919571,243.34165114699863,864.7840748999733,num_5,1,1.1172063930425793,0.3040962979430333,,,,,,,,,,,,,,,,,,,,CBAS0004,1,2024-12-11_13h44.35.528,ObjectScenePairTask_local_study2,2024.1.4,None,2024-12-11 13h45.01.620014 -0500
instructions/Slide006.jpeg,study/imagelist_pair_study2.xlsx,study/images/Pair18_1.jpeg,2.1498634517127395,num_5,1,0,1,0,0,3,3,3,0,4,4,1,864.7950786199654,,,,,,,,,,,,,,864.7847454069415,864.7950786199654,866.9540520709706,866.9308995769825,866.9309468510328,866.9540520709706,866.9540520709706,248.4905407889746,869.9342509929556,num_5,1,1.3122782200807706,0.3359945479314774,,,,,,,,,,,,,,,,,,,,CBAS0004,1,2024-12-11_13h44.35.528,ObjectScenePairTask_local_study2,2024.1.4,None,2024-12-11 13h45.01.620014 -0500
instructions/Slide006.jpeg,study/imagelist_pair_study2.xlsx,study/images/Pair27_1.jpeg,1.0339377735042414,num_8,1,0,1,0,0,3,3,3,0,5,5,10,869.9437566510169,,,,,,,,,,,,,,869.9355765399523,869.9437566510169,870.9849098919658,870.9627199789975,870.9627619549865,870.9849098919658,870.9849098919658,252.52121185290162,873.9649613410002,num_5,0,1.2333312819246203,0.28812987508717924,,,,,,,,,,,,,,,,,,,,CBAS0004,1,2024-12-11_13h44.35.528,ObjectScenePairTask_local_study2,2024.1.4,None,2024-12-11 13h45.01.620014 -0500
instructions/Slide006.jpeg,study/imagelist_pair_study2.xlsx,study/images/Pair22_1.jpeg,1.8305568269052053,num_5,1,0,1,0,0,3,3,3,0,6,6,5,873.9759480450302,,,,,,,,,,,,,,873.9657628600253,873.9759480450302,875.8137368180323,875.7943510969635,875.7943868,875.8137368180323,875.8137368180323,257.3500842269277,878.7983554759994,num_5,1,1.4205367369577289,0.2641022470779717,,,,,,,,,,,,,,,,,,,,CBAS0004,1,2024-12-11_13h44.35.528,ObjectScenePairTask_local_study2,2024.1.4,None,2024-12-11 13h45.01.620014 -0500
instructions/Slide006.jpeg,study/imagelist_pair_study2.xlsx,study/images/Pair29_1.jpeg,2.6380517043701035,num_5,1,0,1,0,0,3,3,3,0,7,7,12,878.8082357179374,,,,,,,,,,,,,,878.7994654489448,878.8082357179374,881.4535698100226,881.4329212269513,881.4329542389605,881.4535698100226,881.4535698100226,262.9900699,884.4405704699457,num_5,1,0.8767954759532586,0.23194161499850452,,,,,,,,,,,,,,,,,,,,CBAS0004,1,2024-12-11_13h44.35.528,ObjectScenePairTask_local_study2,2024.1.4,None,2024-12-11 13h45.01.620014 -0500
instructions/Slide006.jpeg,study/imagelist_pair_study2.xlsx,study/images/Pair19_1.jpeg,1.9844068606522853,num_5,1,0,1,0,0,3,3,3,0,8,8,2,884.4475665859645,,,,,,,,,,,,,,884.4420371990418,884.4475665859645,886.4436892919475,886.4247828240041,886.4248154379893,886.4436892919475,886.4436892919475,267.9801182289375,889.4293670009356,num_5,1,1.7266784129897133,0.2479359949938953,,,,,,,,,,,,,,,,,,,,CBAS0004,1,2024-12-11_13h44.35.528,ObjectScenePairTask_local_study2,2024.1.4,None,2024-12-11 13h45.01.620014 -0500
instructions/Slide006.jpeg,study/imagelist_pair_study2.xlsx,study/images/Pair26_1.jpeg,2.464365328784731,num_8,1,0,1,0,0,3,3,3,0,9,9,9,889.4387582179625,,,,,,,,,,,,,,889.4306940690149,889.4387582179625,891.9116319760215,891.8902311800048,891.8902651119279,891.9116319760215,891.9116319760215,273.4481789,894.8920723799383,num_8,1,1.8747041139286011,0.24800119805149734,,,,,,,,,,,,,,,,,,,,CBAS0004,1,2024-12-11_13h44.35.528,ObjectScenePairTask_local_study2,2024.1.4,None,2024-12-11 13h45.01.620014 -0500
instructions/Slide006.jpeg,study/imagelist_pair_study2.xlsx,study/images/Pair31_1.jpeg,2.503697394949908,num_8,1,0,1,0,0,3,3,3,0,10,10,13,894.9035285999998,,,,,,,,,,,,,,894.8927416759543,894.9035285999998,897.4175535659306,897.3953384539345,897.3953712,897.4175535659306,897.4175535659306,278.95387673098594,900.4028866459848,num_8,1,0.8727770471014082,0.22403944993857294,,,,,,,,,,,,,,,,,,,,CBAS0004,1,2024-12-11_13h44.35.528,ObjectScenePairTask_local_study2,2024.1.4,None,2024-12-11 13h45.01.620014 -0500
instructions/Slide006.jpeg,study/imagelist_pair_study2.xlsx,study/images/Pair28_1.jpeg,2.619760485863384,num_5,1,0,1,0,0,3,3,3,0,11,11,11,900.4108582939953,,,,,,,,,,,,,,900.4044096799335,900.4108582939953,903.0398511720123,903.0199559850153,903.0199829819612,903.0398511720123,903.0398511720123,284.57640129793435,906.0248221739894,num_5,1,1.5624572299420834,0.24795250897295773,,,,,,,,,,,,,,,,,,,,CBAS0004,1,2024-12-11_13h44.35.528,ObjectScenePairTask_local_study2,2024.1.4,None,2024-12-11 13h45.01.620014 -0500
instructions/Slide006.jpeg,study/imagelist_pair_study2.xlsx,study/images/Pair20_1.jpeg,1.1482335280017675,num_5,1,0,1,0,0,3,3,3,0,12,12,3,906.0342489959439,,,,,,,,,,,,,,906.025709,906.0342489959439,907.1902637339663,907.1692602779949,907.1692934249295,907.1902637339663,907.1902637339663,288.72654321196023,910.1751999550033,num_5,1,1.5400803700322285,0.3119650819571689,,,,,,,,,,,,,,,,,,,,CBAS0004,1,2024-12-11_13h44.35.528,ObjectScenePairTask_local_study2,2024.1.4,None,2024-12-11 13h45.01.620014 -0500
instructions/Slide006.jpeg,study/imagelist_pair_study2.xlsx,study/images/Pair23_1.jpeg,2.721811315864961,num_5,1,0,1,0,0,3,3,3,0,13,13,6,910.2000199389877,,,,,,,,,,,,,,910.1767425929429,910.2000199389877,912.9237703339895,912.9063945870148,912.9064713,912.9237703339895,912.9237703339895,294.4602694649948,915.9153488869779,num_8,0,2.326583125977777,0.2078376200515777,,,,,,,,,,,,,,,,,,,,CBAS0004,1,2024-12-11_13h44.35.528,ObjectScenePairTask_local_study2,2024.1.4,None,2024-12-11 13h45.01.620014 -0500
instructions/Slide006.jpeg,study/imagelist_pair_study2.xlsx,,,,1,0,1,0,0,3,3,3,,,,,,,,,,,,,,,,,,,,,,,,,,,,,,,,,,,,,,,,,,,,,,,,,,,CBAS0004,1,2024-12-11_13h44.35.528,ObjectScenePairTask_local_study2,2024.1.4,None,2024-12-11 13h45.01.620014 -0500
,,,,,1,0,1,0,,,,,,,,,,,,,,,,,,,,,,,,,,,,,,,,,,,,,,916.1143351789797,916.1187526489375,917.9040274799336,986.3983359460253,space,68.49212844,None,986.3986918659648,986.4064246419584,988.3964521320304,995.6957713980228,num_divide,7.293907191953622,None,,,,CBAS0004,1,2024-12-11_13h44.35.528,ObjectScenePairTask_local_study2,2024.1.4,None,2024-12-11 13h45.01.620014 -0500
instructions/Slide006.jpeg,study/imagelist_pair_study6.xlsx,study/images/Pair94_1.jpeg,2.3354264680906205,num_5,2,0,2,0,0,0,0,1,0,0,0,12,1000.996480145026,,,,,,995.7051965199644,995.7498188880272,995.7498188880272,1000.971012883936,5.274934921995737,num_2,5.204519864055328,None,1000.9867682190379,1000.996480145026,1003.3484803779284,1003.3264347979566,1003.326461761957,1003.3484803779284,1003.3484803779284,7.653522707987577,1006.3305783290416,num_5,1,1.6378264490049332,0.2879616969730705,,,,,,,,,,,,,,,,,,,,CBAS0004,1,2024-12-11_13h44.35.528,ObjectScenePairTask_local_study2,2024.1.4,None,2024-12-11 13h45.01.620014 -0500
instructions/Slide006.jpeg,study/imagelist_pair_study6.xlsx,study/images/Pair81_1.jpeg,2.7823712310570343,num_8,2,0,2,0,0,0,0,1,0,1,1,1,1006.3411643919535,,,,,,,,,,,,,,1006.3320077400422,1006.3411643919535,1009.1297632809728,1009.1080757139716,1009.1081059449352,1009.1297632809728,1009.1297632809728,13.434910034993663,1012.1121840699343,num_5,0,1.7205579798901454,0.30394010804593563,,,,,,,,,,,,,,,,,,,,CBAS0004,1,2024-12-11_13h44.35.528,ObjectScenePairTask_local_study2,2024.1.4,None,2024-12-11 13h45.01.620014 -0500
instructions/Slide006.jpeg,study/imagelist_pair_study6.xlsx,study/images/Pair88_1.jpeg,1.3977136091525129,num_8,2,0,2,0,0,0,0,1,0,2,2,7,1012.1221580340061,,,,,,,,,,,,,,1012.1135538580129,1012.1221580340061,1013.5222866529366,1013.5062695399392,1013.5062875750009,1013.5222866529366,1013.5222866529366,17.827435450977646,1016.5119615560398,num_8,1,0.7200461080064997,0.24799401592463255,,,,,,,,,,,,,,,,,,,,CBAS0004,1,2024-12-11_13h44.35.528,ObjectScenePairTask_local_study2,2024.1.4,None,2024-12-11 13h45.01.620014 -0500
instructions/Slide006.jpeg,study/imagelist_pair_study6.xlsx,study/images/Pair92_1.jpeg,2.6901919010241953,num_5,2,0,2,0,0,0,0,1,0,3,3,10,1016.5209846789949,,,,,,,,,,,,,,1016.5130677779671,1016.5209846789949,1019.2175122619374,1019.1953698529396,1019.1954341880046,1019.2175122619374,1019.2175122619374,23.523236223962158,1022.2030359799974,num_5,1,1.2328535810811445,0.287902576,,,,,,,,,,,,,,,,,,,,CBAS0004,1,2024-12-11_13h44.35.528,ObjectScenePairTask_local_study2,2024.1.4,None,2024-12-11 13h45.01.620014 -0500
instructions/Slide006.jpeg,study/imagelist_pair_study6.xlsx,study/images/Pair86_1.jpeg,2.261223958425652,num_5,2,0,2,0,0,0,0,1,0,4,4,5,1022.2104042440187,,,,,,,,,,,,,,1022.2042728649685,1022.2104042440187,1024.4821556919487,1024.4615017749602,1024.4615347959334,1024.4821556919487,1024.4821556919487,28.787716059945524,1027.4682504889788,num_5,1,1.5041336549911648,0.28803731605876237,,,,,,,,,,,,,,,,,,,,CBAS0004,1,2024-12-11_13h44.35.528,ObjectScenePairTask_local_study2,2024.1.4,None,2024-12-11 13h45.01.620014 -0500
instructions/Slide006.jpeg,study/imagelist_pair_study6.xlsx,study/images/Pair82_1.jpeg,2.4405576108855787,num_8,2,0,2,0,0,0,0,1,0,5,5,2,1027.4751915049274,,,,,,,,,,,,,,1027.469711148995,1027.4751915049274,1029.9292996380245,1029.903182729031,1029.903225918999,1029.9292996380245,1029.9292996380245,34.23467300902121,1032.908256,num_5,0,1.5851371469907463,0.3118576919659972,,,,,,,,,,,,,,,,,,,,CBAS0004,1,2024-12-11_13h44.35.528,ObjectScenePairTask_local_study2,2024.1.4,None,2024-12-11 13h45.01.620014 -0500
instructions/Slide006.jpeg,study/imagelist_pair_study6.xlsx,study/images/Pair80_1.jpeg,2.248853795878892,num_8,2,0,2,0,0,0,0,1,0,6,6,0,1032.9170776599785,,,,,,,,,,,,,,1032.9093552909326,1032.9170776599785,1035.1704987479607,1035.1517750290222,1035.1518507959554,1035.1704987479607,1035.1704987479607,39.475648941937834,1038.1538074029377,num_8,1,2.2478155859280378,0.2479947640094906,,,,,,,,,,,,,,,,,,,,CBAS0004,1,2024-12-11_13h44.35.528,ObjectScenePairTask_local_study2,2024.1.4,None,2024-12-11 13h45.01.620014 -0500
instructions/Slide006.jpeg,study/imagelist_pair_study6.xlsx,study/images/Pair95_1.jpeg,2.388442862894903,num_5,2,0,2,0,0,0,0,1,0,7,7,13,1038.1646317909472,,,,,,,,,,,,,,1038.1544643589295,1038.1646317909472,1040.559534505941,1040.5384524220135,1040.538474868983,1040.559534505941,1040.559534505941,44.86455592093989,1043.5469182969537,num_5,1,2.4907711800187826,0.31197102298028767,,,,,,,,,,,,,,,,,,,,CBAS0004,1,2024-12-11_13h44.35.528,ObjectScenePairTask_local_study2,2024.1.4,None,2024-12-11 13h45.01.620014 -0500
instructions/Slide006.jpeg,study/imagelist_pair_study6.xlsx,study/images/Pair89_1.jpeg,2.4882607195069966,num_5,2,0,2,0,0,0,0,1,0,8,8,8,1043.553273773985,,,,,,,,,,,,,,1043.5480767380213,1043.553273773985,1046.053245979012,1046.0319256959483,1046.0319527769461,1046.053245979012,1046.053245979012,50.35860632301774,1049.0341833960265,num_5,1,1.5250234060222283,0.24800837808288634,,,,,,,,,,,,,,,,,,,,CBAS0004,1,2024-12-11_13h44.35.528,ObjectScenePairTask_local_study2,2024.1.4,None,2024-12-11 13h45.01.620014 -0500
instructions/Slide006.jpeg,study/imagelist_pair_study6.xlsx,study/images/Pair87_1.jpeg,1.736147772261182,num_5,2,0,2,0,0,0,0,1,0,9,9,6,1049.0456759469816,,,,,,,,,,,,,,1049.035376587999,1049.0456759469816,1050.7876319460338,1050.7692997240229,1050.769323230954,1050.7876319460338,1050.7876319460338,55.09258107293863,1053.778402396012,num_5,1,1.1266979300417006,0.2639278919668868,,,,,,,,,,,,,,,,,,,,CBAS0004,1,2024-12-11_13h44.35.528,ObjectScenePairTask_local_study2,2024.1.4,None,2024-12-11 13h45.01.620014 -0500
instructions/Slide006.jpeg,study/imagelist_pair_study6.xlsx,study/images/Pair83_1.jpeg,2.5125858753391563,num_5,2,0,2,0,0,0,0,1,0,10,10,3,1053.7856748719933,,,,,,,,,,,,,,1053.7794509259984,1053.7856748719933,1056.3050676520215,1056.2837143589277,1056.2837483430048,1056.3050676520215,1056.3050676520215,60.61030380195007,1059.293477225001,num_5,1,1.217175672063604,0.3120445889653638,,,,,,,,,,,,,,,,,,,,CBAS0004,1,2024-12-11_13h44.35.528,ObjectScenePairTask_local_study2,2024.1.4,None,2024-12-11 13h45.01.620014 -0500
instructions/Slide006.jpeg,study/imagelist_pair_study6.xlsx,study/images/Pair93_1.jpeg,2.207970133,num_8,2,0,2,0,0,0,0,1,0,11,11,11,1059.2998583849985,,,,,,,,,,,,,,1059.294322666945,1059.2998583849985,1061.5152176819975,1061.4942088669632,1061.494240776985,1061.5152176819975,1061.5152176819975,65.82042962894775,1064.5031411680393,num_8,1,1.2311022030189633,0.22402626206167042,,,,,,,,,,,,,,,,,,,,CBAS0004,1,2024-12-11_13h44.35.528,ObjectScenePairTask_local_study2,2024.1.4,None,2024-12-11 13h45.01.620014 -0500
instructions/Slide006.jpeg,study/imagelist_pair_study6.xlsx,study/images/Pair84_1.jpeg,1.7410435719352793,num_5,2,0,2,0,0,0,0,1,0,12,12,4,1064.5098906520288,,,,,,,,,,,,,,1064.5039993149694,1064.5098906520288,1066.2573275850154,1066.2419795419555,1066.2419988099718,1066.2573275850154,1066.2573275850154,70.56255694595166,1069.2417963379994,num_5,1,1.7129288539290428,0.31204990204423666,1069.2483252049424,1069.2483252049424,,,,,,,,,,,,,,,,,,CBAS0004,1,2024-12-11_13h44.35.528,ObjectScenePairTask_local_study2,2024.1.4,None,2024-12-11 13h45.01.620014 -0500
instructions/Slide006.jpeg,study/imagelist_pair_study6.xlsx,study/images/Pair91_1.jpeg,1.5678488695014063,num_5,2,0,2,0,0,0,0,1,0,13,13,9,1069.2483252049424,,,,,,,,,,,,,,1069.2428381500067,1069.2483252049424,1070.8267041309737,1070.807930527022,1070.8079576429445,1070.8267041309737,1070.8267041309737,75.13189023802988,1073.8129248679616,num_5,1,1.5676371100125834,0.28796072001568973,,,,,,,,,,,,,,,,,,,,CBAS0004,1,2024-12-11_13h44.35.528,ObjectScenePairTask_local_study2,2024.1.4,None,2024-12-11 13h45.01.620014 -0500
instructions/Slide006.jpeg,study/imagelist_pair_study6.xlsx,,,,2,0,2,0,0,0,0,1,,,,,,,,,,,,,,,,,,,,,,,,,,,,,,,,,,,,,,,,,,,,,,,,,,,CBAS0004,1,2024-12-11_13h44.35.528,ObjectScenePairTask_local_study2,2024.1.4,None,2024-12-11 13h45.01.620014 -0500
instructions/Slide006.jpeg,study/imagelist_pair_study3.xlsx,study/images/Pair41_1.jpeg,2.731139237548036,num_8,2,0,2,0,0,1,1,3,0,0,0,7,1079.0690644639544,,,,,,1073.9280000650324,1073.9625696969451,1073.9625696969451,1079.0401119180024,83.34402751,num_2,5.0716820360394195,None,1079.0566067839973,1079.0690644639544,1081.810094704968,1081.7886914130067,1081.7887150109746,1081.810094704968,1081.810094704968,86.11547680199146,1084.7934783559758,num_5,0,1.8722509229555726,0.2959396850783378,,,,,,,,,,,,,,,,,,,,CBAS0004,1,2024-12-11_13h44.35.528,ObjectScenePairTask_local_study2,2024.1.4,None,2024-12-11 13h45.01.620014 -0500
instructions/Slide006.jpeg,study/imagelist_pair_study3.xlsx,study/images/Pair40_1.jpeg,1.8947718687691597,num_8,2,0,2,0,0,1,1,3,0,1,1,6,1084.802300006966,,,,,,,,,,,,,,1084.7949449419975,1084.802300006966,1086.7096489620162,1086.6871657109587,1086.6871932969661,1086.7096489620162,1086.7096489620162,91.01472453,1089.691886399989,num_8,1,1.1086714890552685,0.18395497498568147,,,,,,,,,,,,,,,,,,,,CBAS0004,1,2024-12-11_13h44.35.528,ObjectScenePairTask_local_study2,2024.1.4,None,2024-12-11 13h45.01.620014 -0500
instructions/Slide006.jpeg,study/imagelist_pair_study3.xlsx,study/images/Pair38_1.jpeg,2.7460546105084735,num_8,2,0,2,0,0,1,1,3,0,2,2,4,1089.701633051969,,,,,,,,,,,,,,1089.6929982389556,1089.701633051969,1092.4573923129356,1092.4360233120387,1092.4360582479276,1092.4573923129356,1092.4573923129356,96.76271607493982,1095.4398833609885,num_5,0,1.961016233,0.3118595730047673,,,,,,,,,,,,,,,,,,,,CBAS0004,1,2024-12-11_13h44.35.528,ObjectScenePairTask_local_study2,2024.1.4,None,2024-12-11 13h45.01.620014 -0500
instructions/Slide006.jpeg,study/imagelist_pair_study3.xlsx,study/images/Pair37_1.jpeg,2.5746984429035242,num_8,2,0,2,0,0,1,1,3,0,3,3,3,1095.449916122947,,,,,,,,,,,,,,1095.4406100419583,1095.449916122947,1098.0360571049387,1098.0168461060384,1098.0168665440287,1098.0360571049387,1098.0360571049387,102.34103830903769,1101.021825894015,num_5,0,1.630218414007686,0.24002740602008998,,,,,,,,,,,,,,,,,,,,CBAS0004,1,2024-12-11_13h44.35.528,ObjectScenePairTask_local_study2,2024.1.4,None,2024-12-11 13h45.01.620014 -0500
instructions/Slide006.jpeg,study/imagelist_pair_study3.xlsx,study/images/Pair46_1.jpeg,2.559206248716719,num_5,2,0,2,0,0,1,1,3,0,4,4,12,1101.0309839010006,,,,,,,,,,,,,,1101.022944908007,1101.0309839010006,1103.6036879980238,1103.5824990629917,1103.5825262139551,1103.6036879980238,1103.6036879980238,107.90865147893783,1106.5862466079416,num_8,0,0.9105964499758556,0.23210699309129268,,,,,,,,,,,,,,,,,,,,CBAS0004,1,2024-12-11_13h44.35.528,ObjectScenePairTask_local_study2,2024.1.4,None,2024-12-11 13h45.01.620014 -0500
instructions/Slide006.jpeg,study/imagelist_pair_study3.xlsx,study/images/Pair43_1.jpeg,1.7410522555806724,num_8,2,0,2,0,0,1,1,3,0,5,5,9,1106.5964035770157,,,,,,,,,,,,,,1106.5870512450347,1106.5964035770157,1108.3501488439506,1108.3316486509284,1108.3316756320419,1108.3501488439506,1108.3501488439506,112.65538662101608,1111.3363769639982,num_8,1,1.388127135927789,0.22405353607609868,,,,,,,,,,,,,,,,,,,,CBAS0004,1,2024-12-11_13h44.35.528,ObjectScenePairTask_local_study2,2024.1.4,None,2024-12-11 13h45.01.620014 -0500
instructions/Slide006.jpeg,study/imagelist_pair_study3.xlsx,study/images/Pair44_1.jpeg,1.1443879828201142,num_8,2,0,2,0,0,1,1,3,0,6,6,10,1111.3458660229808,,,,,,,,,,,,,,1111.3374809599482,1111.3458660229808,1112.4992545619607,1112.4806446200237,1112.4806784989778,1112.4992545619607,1112.4992545619607,116.8047685349593,1115.486390553997,num_5,0,1.127059272956103,0.2879752470180392,,,,,,,,,,,,,,,,,,,,CBAS0004,1,2024-12-11_13h44.35.528,ObjectScenePairTask_local_study2,2024.1.4,None,2024-12-11 13h45.01.620014 -0500
instructions/Slide006.jpeg,study/imagelist_pair_study3.xlsx,study/images/Pair42_1.jpeg,1.6285457166730208,num_8,2,0,2,0,0,1,1,3,0,7,7,8,1115.494181158021,,,,,,,,,,,,,,1115.487499356037,1115.494181158021,1117.130915542948,1117.112493282999,1117.1125202019466,1117.130915542948,1117.130915542948,121.43606400897261,1120.1177889659302,num_8,1,0.975377518,0.2079735869774595,,,,,,,,,,,,,,,,,,,,CBAS0004,1,2024-12-11_13h44.35.528,ObjectScenePairTask_local_study2,2024.1.4,None,2024-12-11 13h45.01.620014 -0500
instructions/Slide006.jpeg,study/imagelist_pair_study3.xlsx,study/images/Pair45_1.jpeg,2.659617309108227,num_8,2,0,2,0,0,1,1,3,0,8,8,11,1120.1260454630246,,,,,,,,,,,,,,1120.1193225269672,1120.1260454630246,1122.8010975760408,1122.7771129439352,1122.7771406109678,1122.8010975760408,1122.8010975760408,127.10629549901932,1125.7809919819701,num_5,0,1.3292289309902117,0.2959596029249951,,,,,,,,,,,,,,,,,,,,CBAS0004,1,2024-12-11_13h44.35.528,ObjectScenePairTask_local_study2,2024.1.4,None,2024-12-11 13h45.01.620014 -0500
instructions/Slide006.jpeg,study/imagelist_pair_study3.xlsx,study/images/Pair32_1.jpeg,1.7730465193296723,num_8,2,0,2,0,0,1,1,3,0,9,9,0,1125.7913266170071,,,,,,,,,,,,,,1125.7818989040097,1125.7913266170071,1127.5743768180255,1127.5496656929608,1127.5496998060262,1127.5743768180255,1127.5743768180255,131.87981702794787,1130.557441654033,num_5,0,1.2039525599684566,0.24793465610127896,,,,,,,,,,,,,,,,,,,,CBAS0004,1,2024-12-11_13h44.35.528,ObjectScenePairTask_local_study2,2024.1.4,None,2024-12-11 13h45.01.620014 -0500
instructions/Slide006.jpeg,study/imagelist_pair_study3.xlsx,study/images/Pair33_1.jpeg,1.548890735794928,num_5,2,0,2,0,0,1,1,3,0,10,10,1,1130.563593704952,,,,,,,,,,,,,,1130.5583837479353,1130.563593704952,1132.121487403987,1132.097777788993,1132.097804859979,1132.121487403987,1132.121487403987,136.42700830404647,1135.105073541985,num_5,1,1.1208428039681166,0.2239507989725098,,,,,,,,,,,,,,,,,,,,CBAS0004,1,2024-12-11_13h44.35.528,ObjectScenePairTask_local_study2,2024.1.4,None,2024-12-11 13h45.01.620014 -0500
instructions/Slide006.jpeg,study/imagelist_pair_study3.xlsx,study/images/Pair48_1.jpeg,2.0780684853739864,num_5,2,0,2,0,0,1,1,3,0,11,11,13,1135.110456926981,,,,,,,,,,,,,,1135.105779,1135.110456926981,1137.1963460779516,1137.1740305479616,1137.1740637599723,1137.1963460779516,1137.1963460779516,141.5018718970241,1140.1796325029572,num_5,1,1.3258994210045785,0.27207735006231815,,,,,,,,,,,,,,,,,,,,CBAS0004,1,2024-12-11_13h44.35.528,ObjectScenePairTask_local_study2,2024.1.4,None,2024-12-11 13h45.01.620014 -0500
instructions/Slide006.jpeg,study/imagelist_pair_study3.xlsx,study/images/Pair39_1.jpeg,1.389581094323528,num_5,2,0,2,0,0,1,1,3,0,12,12,5,1140.1872200049693,,,,,,,,,,,,,,1140.1803568709875,1140.1872200049693,1141.5809109299444,1141.5623633509967,1141.562399849994,1141.5809109299444,1141.5809109299444,145.8860615779413,1144.5707961589796,num_5,1,1.2854377269977704,0.20799899997655302,,,,,,,,,,,,,,,,,,,,CBAS0004,1,2024-12-11_13h44.35.528,ObjectScenePairTask_local_study2,2024.1.4,None,2024-12-11 13h45.01.620014 -0500
instructions/Slide006.jpeg,study/imagelist_pair_study3.xlsx,study/images/Pair35_1.jpeg,1.6005167263957878,num_5,2,0,2,0,0,1,1,3,0,13,13,2,1144.5864916059654,,,,,,,,,,,,,,1144.5719833580079,1144.5864916059654,1146.1949710069457,1146.1716314529767,1146.1716652939795,1146.1949710069457,1146.1949710069457,150.50029582495335,1149.1744459290057,num_5,1,0.9672820349223912,0.24804744205903262,,,,,,,,,,,,,,,,,,,,CBAS0004,1,2024-12-11_13h44.35.528,ObjectScenePairTask_local_study2,2024.1.4,None,2024-12-11 13h45.01.620014 -0500
instructions/Slide006.jpeg,study/imagelist_pair_study3.xlsx,,,,2,0,2,0,0,1,1,3,,,,,,,,,,,,,,,,,,,,,,,,,,,,,,,,,,,,,,,,,,,,,,,,,,,CBAS0004,1,2024-12-11_13h44.35.528,ObjectScenePairTask_local_study2,2024.1.4,None,2024-12-11 13h45.01.620014 -0500
instructions/Slide006.jpeg,study/imagelist_pair_study4.xlsx,study/images/Pair62_1.jpeg,2.2405655062607823,num_5,2,0,2,0,0,2,2,2,0,0,0,12,1153.9681596460287,,,,,,1149.3614729059627,1149.3962943570223,1149.3962943570223,1153.9368536049733,158.24077633896377,num_2,4.534069256,None,1153.9534633669537,1153.9681596460287,1156.2244976309594,1156.2021580649307,1156.2021923320135,1156.2244976309594,1156.2244976309594,160.53005518496502,1159.2050156979822,num_5,1,1.4658217129763216,0.24800849601160735,,,,,,,,,,,,,,,,,,,,CBAS0004,1,2024-12-11_13h44.35.528,ObjectScenePairTask_local_study2,2024.1.4,None,2024-12-11 13h45.01.620014 -0500
instructions/Slide006.jpeg,study/imagelist_pair_study4.xlsx,study/images/Pair60_1.jpeg,2.3616266470281175,num_8,2,0,2,0,0,2,2,2,0,1,1,10,1159.2162697149906,,,,,,,,,,,,,,1159.2058046270395,1159.2162697149906,1161.5888338659424,1161.5675117489882,1161.5675524600083,1161.5888338659424,1161.5888338659424,165.8944312100066,1164.5716292519355,num_8,1,1.7334576270077378,0.28812190098688006,,,,,,,,,,,,,,,,,,,,CBAS0004,1,2024-12-11_13h44.35.528,ObjectScenePairTask_local_study2,2024.1.4,None,2024-12-11 13h45.01.620014 -0500
instructions/Slide006.jpeg,study/imagelist_pair_study4.xlsx,study/images/Pair55_1.jpeg,1.7329028308820267,num_8,2,0,2,0,0,2,2,2,0,2,2,5,1164.5812851479277,,,,,,,,,,,,,,1164.5725805870024,1164.5812851479277,1166.3207613319391,1166.2991002689814,1166.299126512953,1166.3207613319391,1166.3207613319391,170.62610674998723,1169.3043649230385,num_5,0,1.3774731400189921,0.23203165305312723,,,,,,,,,,,,,,,,,,,,CBAS0004,1,2024-12-11_13h44.35.528,ObjectScenePairTask_local_study2,2024.1.4,None,2024-12-11 13h45.01.620014 -0500
instructions/Slide006.jpeg,study/imagelist_pair_study4.xlsx,study/images/Pair63_1.jpeg,1.5149555740026475,num_8,2,0,2,0,0,2,2,2,0,3,3,13,1169.3133493959904,,,,,,,,,,,,,,1169.3054631629493,1169.3133493959904,1170.8402593960054,1170.8148592979414,1170.8148992620409,1170.8402593960054,1170.8402593960054,175.14582254597917,1173.8193490109406,num_5,0,2.0580964329419658,0.3759516690624878,,,,,,,,,,,,,,,,,,,,CBAS0004,1,2024-12-11_13h44.35.528,ObjectScenePairTask_local_study2,2024.1.4,None,2024-12-11 13h45.01.620014 -0500
instructions/Slide006.jpeg,study/imagelist_pair_study4.xlsx,study/images/Pair57_1.jpeg,2.806917035215074,num_5,2,0,2,0,0,2,2,2,0,4,4,7,1173.8290556049906,,,,,,,,,,,,,,1173.820460611023,1173.8290556049906,1176.6516240480123,1176.6292658279417,1176.6292930709897,1176.6516240480123,1176.6516240480123,180.95743924402632,1179.6349354919512,num_5,1,1.0627315359888598,0.24786756001412868,,,,,,,,,,,,,,,,,,,,CBAS0004,1,2024-12-11_13h44.35.528,ObjectScenePairTask_local_study2,2024.1.4,None,2024-12-11 13h45.01.620014 -0500
instructions/Slide006.jpeg,study/imagelist_pair_study4.xlsx,study/images/Pair59_1.jpeg,1.0468617737380652,num_5,2,0,2,0,0,2,2,2,0,5,5,9,1179.6440335640218,,,,,,,,,,,,,,1179.6360414440278,1179.6440335640218,1180.696701301029,1180.6783167290268,1180.6783402899746,1180.696701301029,1180.696701301029,185.00189087097533,1183.6823433529353,num_5,1,1.3936440019169822,0.23201369401067495,,,,,,,,,,,,,,,,,,,,CBAS0004,1,2024-12-11_13h44.35.528,ObjectScenePairTask_local_study2,2024.1.4,None,2024-12-11 13h45.01.620014 -0500
instructions/Slide006.jpeg,study/imagelist_pair_study4.xlsx,study/images/Pair54_1.jpeg,2.299673166864247,num_5,2,0,2,0,0,2,2,2,0,6,6,4,1183.6921107990202,,,,,,,,,,,,,,1183.6832717439393,1183.6921107990202,1185.9992455500178,1185.9772113909712,1185.97724,1185.9992455500178,1185.9992455500178,190.3046490859706,1188.9809560099384,num_8,0,1.5631489868974313,0.26389291509985924,,,,,,,,,,,,,,,,,,,,CBAS0004,1,2024-12-11_13h44.35.528,ObjectScenePairTask_local_study2,2024.1.4,None,2024-12-11 13h45.01.620014 -0500
instructions/Slide006.jpeg,study/imagelist_pair_study4.xlsx,study/images/Pair50_1.jpeg,1.5324537083022354,num_5,2,0,2,0,0,2,2,2,0,7,7,1,1188.9909277269617,,,,,,,,,,,,,,1188.9817137400387,1188.9909277269617,1190.527788184001,1190.5092990209814,1190.5093247230398,1190.527788184001,1190.527788184001,194.8330485309707,1193.5123842349276,num_8,0,2.8345782740507275,None,,,,,,,,,,,,,,,,,,,,CBAS0004,1,2024-12-11_13h44.35.528,ObjectScenePairTask_local_study2,2024.1.4,None,2024-12-11 13h45.01.620014 -0500
instructions/Slide006.jpeg,study/imagelist_pair_study4.xlsx,study/images/Pair49_1.jpeg,1.459276813997128,num_8,2,0,2,0,0,2,2,2,0,8,8,0,1193.5224071890116,,,,,,,,,,,,,,1193.5132382470183,1193.5224071890116,1194.994847998023,1194.974066853989,1194.974090200034,1194.994847998023,1194.994847998023,199.30010409094393,1197.9792772970395,num_5,0,1.4714628519723192,0.24796228006016463,,,,,,,,,,,,,,,,,,,,CBAS0004,1,2024-12-11_13h44.35.528,ObjectScenePairTask_local_study2,2024.1.4,None,2024-12-11 13h45.01.620014 -0500
instructions/Slide006.jpeg,study/imagelist_pair_study4.xlsx,study/images/Pair56_1.jpeg,1.7135944798671228,num_5,2,0,2,0,0,2,2,2,0,9,9,6,1197.9891070729354,,,,,,,,,,,,,,1197.9804315749789,1197.9891070729354,1199.7080625180388,1199.689491793979,1199.6895124419825,1199.7080625180388,1199.7080625180388,204.01313843694516,1202.6931040600175,num_5,1,0.9902829329948872,0.23194644798059016,,,,,,,,,,,,,,,,,,,,CBAS0004,1,2024-12-11_13h44.35.528,ObjectScenePairTask_local_study2,2024.1.4,None,2024-12-11 13h45.01.620014 -0500
instructions/Slide006.jpeg,study/imagelist_pair_study4.xlsx,study/images/Pair51_1.jpeg,2.5939764443228244,num_8,2,0,2,0,0,2,2,2,0,10,10,2,1202.7044165029656,,,,,,,,,,,,,,1202.693891881965,1202.7044165029656,1205.3112233569846,1205.2883316579973,1205.288358520018,1205.3112233569846,1205.3112233569846,209.61681994004175,1208.291925493977,num_8,1,0.9631137070246041,0.2079969960032031,,,,,,,,,,,,,,,,,,,,CBAS0004,1,2024-12-11_13h44.35.528,ObjectScenePairTask_local_study2,2024.1.4,None,2024-12-11 13h45.01.620014 -0500
instructions/Slide006.jpeg,study/imagelist_pair_study4.xlsx,study/images/Pair58_1.jpeg,2.987180154192538,num_8,2,0,2,0,0,2,2,2,0,11,11,8,1208.302801,,,,,,,,,,,,,,1208.2930304820184,1208.302801,1211.2959959909786,1211.2771413279697,1211.2771686129272,1211.2959959909786,1211.2959959909786,215.60160670499317,1214.2845670640236,num_8,1,1.5783562619471923,0.19996540702413768,,,,,,,,,,,,,,,,,,,,CBAS0004,1,2024-12-11_13h44.35.528,ObjectScenePairTask_local_study2,2024.1.4,None,2024-12-11 13h45.01.620014 -0500
instructions/Slide006.jpeg,study/imagelist_pair_study4.xlsx,study/images/Pair61_1.jpeg,1.9606165807946805,num_8,2,0,2,0,0,2,2,2,0,12,12,11,1214.2895565349609,,,,,,,,,,,,,,1214.2851234560367,1214.2895565349609,1216.2615767329698,1216.2357666969765,1216.2357934910106,1216.2615767329698,1216.2615767329698,220.56769988394808,1219.239613638958,num_8,1,1.1566908290842548,0.22404708492103964,,,,,,,,,,,,,,,,,,,,CBAS0004,1,2024-12-11_13h44.35.528,ObjectScenePairTask_local_study2,2024.1.4,None,2024-12-11 13h45.01.620014 -0500
instructions/Slide006.jpeg,study/imagelist_pair_study4.xlsx,study/images/Pair53_1.jpeg,1.8501914242769322,num_5,2,0,2,0,0,2,2,2,0,13,13,3,1219.2490661439952,,,,,,,,,,,,,,1219.2407315350138,1219.2490661439952,1221.1012277629925,1221.0835165430326,1221.083543,1221.1012277629925,1221.1012277629925,225.40652021102142,1224.089088195935,num_5,1,1.5570603610249236,0.27198842098005116,,,,,,,,,,,,,,,,,,,,CBAS0004,1,2024-12-11_13h44.35.528,ObjectScenePairTask_local_study2,2024.1.4,None,2024-12-11 13h45.01.620014 -0500
instructions/Slide006.jpeg,study/imagelist_pair_study4.xlsx,,,,2,0,2,0,0,2,2,2,,,,,,,,,,,,,,,,,,,,,,,,,,,,,,,,,,,,,,,,,,,,,,,,,,,CBAS0004,1,2024-12-11_13h44.35.528,ObjectScenePairTask_local_study2,2024.1.4,None,2024-12-11 13h45.01.620014 -0500
instructions/Slide004.jpeg,study/imagelist_scene_study2.xlsx,study/images/Scn18_1.jpeg,1.5925371758923854,num_8,2,0,2,0,0,3,3,0,0,0,0,5,1226.1891344200121,,,,,,1224.2280514909653,1224.2619819319807,1224.2619819319807,1226.1577586740023,230.46167917794082,num_2,1.892350023961626,None,1226.1747790209483,1226.1891344200121,1227.7823160890257,1227.765045776032,1227.7650667330017,1227.7823160890257,1227.7823160890257,232.08755057200324,1230.7695987769403,num_8,1,0.8439487759023905,0.24801507010124624,,,,,,,,,,,,,,,,,,,,CBAS0004,1,2024-12-11_13h44.35.528,ObjectScenePairTask_local_study2,2024.1.4,None,2024-12-11 13h45.01.620014 -0500
instructions/Slide004.jpeg,study/imagelist_scene_study2.xlsx,study/images/Scn73_1.jpeg,2.2979653297097844,num_5,2,0,2,0,0,3,3,0,0,1,1,7,1230.7795132169267,,,,,,,,,,,,,,1230.7707970310003,1230.7795132169267,1233.0829016789794,1233.0637309469748,1233.063749504974,1233.0829016789794,1233.0829016789794,237.3879811980296,1236.0680809899932,num_5,1,1.1113841460319236,0.2560552950017154,,,,,,,,,,,,,,,,,,,,CBAS0004,1,2024-12-11_13h44.35.528,ObjectScenePairTask_local_study2,2024.1.4,None,2024-12-11 13h45.01.620014 -0500
instructions/Slide004.jpeg,study/imagelist_scene_study2.xlsx,study/images/Scn88_1.jpeg,2.0271516148674253,num_5,2,0,2,0,0,3,3,0,0,2,2,13,1236.078641348984,,,,,,,,,,,,,,1236.068901067949,1236.078641348984,1238.121012978023,1238.097266,1238.0972992139868,1238.121012978023,1238.121012978023,242.4265281369444,1241.1006316629937,num_5,1,0.8252984560094774,0.2719761279877275,,,,,,,,,,,,,,,,,,,,CBAS0004,1,2024-12-11_13h44.35.528,ObjectScenePairTask_local_study2,2024.1.4,None,2024-12-11 13h45.01.620014 -0500
instructions/Slide004.jpeg,study/imagelist_scene_study2.xlsx,study/images/Scn24_1.jpeg,2.124427887914705,num_8,2,0,2,0,0,3,3,0,0,3,3,11,1241.1108031329932,,,,,,,,,,,,,,1241.1016132730292,1241.1108031329932,1243.2521436199313,1243.228130034986,1243.2281540860422,1243.2521436199313,1243.2521436199313,247.55767730693333,1246.231570102973,num_8,1,0.9261639659525827,0.19999976898543537,,,,,,,,,,,,,,,,,,,,CBAS0004,1,2024-12-11_13h44.35.528,ObjectScenePairTask_local_study2,2024.1.4,None,2024-12-11 13h45.01.620014 -0500
instructions/Slide004.jpeg,study/imagelist_scene_study2.xlsx,study/images/Scn45_1.jpeg,2.2617332075251584,num_8,2,0,2,0,0,3,3,0,0,4,4,12,1246.2417378970422,,,,,,,,,,,,,,1246.2324061580002,1246.2417378970422,1248.5160206250148,1248.493852981017,1248.493886545999,1248.5160206250148,1248.5160206250148,252.82208182499744,1251.496421549935,num_8,1,1.16624685,0.2320755390683189,,,,,,,,,,,,,,,,,,,,CBAS0004,1,2024-12-11_13h44.35.528,ObjectScenePairTask_local_study2,2024.1.4,None,2024-12-11 13h45.01.620014 -0500
instructions/Slide004.jpeg,study/imagelist_scene_study2.xlsx,study/images/Scn19_1.jpeg,2.9765713116852934,num_8,2,0,2,0,0,3,3,0,0,5,5,6,1251.5072916999925,,,,,,,,,,,,,,1251.4973508969415,1251.5072916999925,1254.4955707170302,1254.47569,1254.4757228279486,1254.4955707170302,1254.4955707170302,258.8012820610311,1257.4797456359956,num_8,1,0.8507362350355834,0.1999332249397412,,,,,,,,,,,,,,,,,,,,CBAS0004,1,2024-12-11_13h44.35.528,ObjectScenePairTask_local_study2,2024.1.4,None,2024-12-11 13h45.01.620014 -0500
instructions/Slide004.jpeg,study/imagelist_scene_study2.xlsx,study/images/Scn22_1.jpeg,1.5542195339045664,num_8,2,0,2,0,0,3,3,0,0,6,6,9,1257.4894901500084,,,,,,,,,,,,,,1257.480686808005,1257.4894901500084,1259.048252306995,1259.0288317779778,1259.0288611049764,1259.048252306995,1259.048252306995,263.3537664259784,1262.038340572035,num_8,1,0.9860875210724771,0.19999831600580364,,,,,,,,,,,,,,,,,,,,CBAS0004,1,2024-12-11_13h44.35.528,ObjectScenePairTask_local_study2,2024.1.4,None,2024-12-11 13h45.01.620014 -0500
instructions/Slide004.jpeg,study/imagelist_scene_study2.xlsx,study/images/Scn71_1.jpeg,1.9534244001438452,num_5,2,0,2,0,0,3,3,0,0,7,7,4,1262.044846080942,,,,,,,,,,,,,,1262.0391978030093,1262.044846080942,1264.0120178479701,1263.9892411989858,1263.989268174977,1264.0120178479701,1264.0120178479701,268.31774925696664,1266.994097681949,num_5,1,0.9742793940240517,0.22404465801082551,,,,,,,,,,,,,,,,,,,,CBAS0004,1,2024-12-11_13h44.35.528,ObjectScenePairTask_local_study2,2024.1.4,None,2024-12-11 13h45.01.620014 -0500
instructions/Slide004.jpeg,study/imagelist_scene_study2.xlsx,study/images/Scn13_1.jpeg,1.8126297244666327,num_8,2,0,2,0,0,3,3,0,0,8,8,0,1267.0029078279622,,,,,,,,,,,,,,1266.9952215639642,1267.0029078279622,1268.8216286220122,1268.8043909489643,1268.8044183129678,1268.8216286220122,1268.8216286220122,273.12713788298424,1271.8084583129967,num_8,1,1.5087367409141734,0.19989391800481826,,,,,,,,,,,,,,,,,,,,CBAS0004,1,2024-12-11_13h44.35.528,ObjectScenePairTask_local_study2,2024.1.4,None,2024-12-11 13h45.01.620014 -0500
instructions/Slide004.jpeg,study/imagelist_scene_study2.xlsx,study/images/Scn96_1.jpeg,1.0769624510798668,num_8,2,0,2,0,0,3,3,0,0,9,9,1,1271.8187780260341,,,,,,,,,,,,,,1271.8095926899696,1271.8187780260341,1272.907409152016,1272.886502402951,1272.886533890036,1272.907409152016,1272.907409152016,277.2142597970087,1275.8912083100295,num_8,1,2.1268173109274358,0.2081025600200519,,,,,,,,,,,,,,,,,,,,CBAS0004,1,2024-12-11_13h44.35.528,ObjectScenePairTask_local_study2,2024.1.4,None,2024-12-11 13h45.01.620014 -0500
instructions/Slide004.jpeg,study/imagelist_scene_study2.xlsx,study/images/Scn16_1.jpeg,2.2330201614248137,num_8,2,0,2,0,0,3,3,0,0,10,10,3,1275.9011090809945,,,,,,,,,,,,,,1275.8921478979755,1275.9011090809945,1278.1428851389792,1278.1193839149782,1278.1194168089423,1278.1428851389792,1278.1428851389792,282.4495139409555,1281.1249775239266,num_8,1,0.7953595919534564,0.1840570659842342,,,,,,,,,,,,,,,,,,,,CBAS0004,1,2024-12-11_13h44.35.528,ObjectScenePairTask_local_study2,2024.1.4,None,2024-12-11 13h45.01.620014 -0500
instructions/Slide004.jpeg,study/imagelist_scene_study2.xlsx,study/images/Scn21_1.jpeg,1.2325463777983536,num_5,2,0,2,0,0,3,3,0,0,11,11,8,1281.134961438016,,,,,,,,,,,,,,1281.1271801230032,1281.134961438016,1282.3806144639384,1282.3577685949858,1282.357795879012,1282.3806144639384,1282.3806144639384,286.6864169789478,1285.364606196992,num_5,1,0.8536918780300766,0.25594157294835895,,,,,,,,,,,,,,,,,,,,CBAS0004,1,2024-12-11_13h44.35.528,ObjectScenePairTask_local_study2,2024.1.4,None,2024-12-11 13h45.01.620014 -0500
instructions/Slide004.jpeg,study/imagelist_scene_study2.xlsx,study/images/Scn15_1.jpeg,1.6826961828446663,num_5,2,0,2,0,0,3,3,0,0,12,12,2,1285.3719164689537,,,,,,,,,,,,,,1285.3662369400263,1285.3719164689537,1287.065641683992,1287.049026933033,1287.0490492270328,1287.065641683992,1287.065641683992,291.37090632901527,1290.054159348947,num_5,1,1.024656317080371,0.392008985,,,,,,,,,,,,,,,,,,,,CBAS0004,1,2024-12-11_13h44.35.528,ObjectScenePairTask_local_study2,2024.1.4,None,2024-12-11 13h45.01.620014 -0500
instructions/Slide004.jpeg,study/imagelist_scene_study2.xlsx,study/images/Scn23_1.jpeg,2.3324813091625107,num_5,2,0,2,0,0,3,3,0,0,13,13,10,1290.0634510079399,,,,,,,,,,,,,,1290.055074214004,1290.0634510079399,1292.4054502409417,1292.3820952259703,1292.3821249729954,1292.4054502409417,1292.4054502409417,296.7107887939783,1295.3861344909528,num_5,1,0.9728533739689738,0.22402003000024706,,,,,,,,,,,,,,,,,,,,CBAS0004,1,2024-12-11_13h44.35.528,ObjectScenePairTask_local_study2,2024.1.4,None,2024-12-11 13h45.01.620014 -0500
instructions/Slide004.jpeg,study/imagelist_scene_study2.xlsx,,,,2,0,2,0,0,3,3,0,,,,,,,,,,,,,,,,,,,,,,,,,,,,,,,,,,,,,,,,,,,,,,,,,,,CBAS0004,1,2024-12-11_13h44.35.528,ObjectScenePairTask_local_study2,2024.1.4,None,2024-12-11 13h45.01.620014 -0500
,,,,,2,0,2,0,,,,,,,,,,,,,,,,,,,,,,,,,,,,,,,,,,,,,,1295.6556080889422,1295.6604528309545,1297.378755016951,1361.4741638030391,space,64.08332712796982,None,1361.4744978540111,1361.4796312350081,1363.4690599319292,1370.4113569490146,num_divide,6.933220103033818,None,,,,CBAS0004,1,2024-12-11_13h44.35.528,ObjectScenePairTask_local_study2,2024.1.4,None,2024-12-11 13h45.01.620014 -0500
instructions/Slide006.jpeg,study/imagelist_pair_study8.xlsx,study/images/Pair128_1.jpeg,2.2971166538366776,num_5,3,0,3,0,0,0,0,3,0,0,0,13,1372.7726916499669,,,,,,1370.4199112800416,1370.4603580769617,1370.4603580769617,1372.7439877280267,2.3323308640392497,num_2,2.278054879978299,None,1372.7613584640203,1372.7726916499669,1375.0831699409755,1375.0593579439446,1375.059385661967,1375.0831699409755,1375.0831699409755,4.673169660032727,1378.0634380480042,num_5,1,1.999101446941495,0.24801241303794086,,,,,,,,,,,,,,,,,,,,CBAS0004,1,2024-12-11_13h44.35.528,ObjectScenePairTask_local_study2,2024.1.4,None,2024-12-11 13h45.01.620014 -0500
instructions/Slide006.jpeg,study/imagelist_pair_study8.xlsx,study/images/Pair123_1.jpeg,1.7205248259786685,num_8,3,0,3,0,0,0,0,3,0,1,1,9,1378.0735780069372,,,,,,,,,,,,,,1378.0649690779392,1378.0735780069372,1379.8020909950137,1379.781072853948,1379.7811065010028,1379.8020909950137,1379.8020909950137,9.392086936044507,1382.7892315239878,num_8,1,1.2881887149997056,0.2880161840002984,,,,,,,,,,,,,,,,,,,,CBAS0004,1,2024-12-11_13h44.35.528,ObjectScenePairTask_local_study2,2024.1.4,None,2024-12-11 13h45.01.620014 -0500
instructions/Slide006.jpeg,study/imagelist_pair_study8.xlsx,study/images/Pair120_1.jpeg,2.9805934281245134,num_8,3,0,3,0,0,0,0,3,0,2,2,6,1382.7958289190428,,,,,,,,,,,,,,1382.7901498660212,1382.7958289190428,1385.7792605150025,1385.7619752399623,1385.7619980949676,1385.7792605150025,1385.7792605150025,15.369029059074819,1388.7701039420208,num_8,1,1.607123516034335,0.22388167097233236,,,,,,,,,,,,,,,,,,,,CBAS0004,1,2024-12-11_13h44.35.528,ObjectScenePairTask_local_study2,2024.1.4,None,2024-12-11 13h45.01.620014 -0500
instructions/Slide006.jpeg,study/imagelist_pair_study8.xlsx,study/images/Pair116_1.jpeg,1.7422002737086997,num_5,3,0,3,0,0,0,0,3,0,3,3,2,1388.7770796649856,,,,,,,,,,,,,,1388.7713434930192,1388.7770796649856,1390.5243091370212,1390.5049561259802,1390.5049900959712,1390.5243091370212,1390.5243091370212,20.114576708059758,1393.5088770230068,num_8,0,1.1740139609901235,0.2080151030095294,,,,,,,,,,,,,,,,,,,,CBAS0004,1,2024-12-11_13h44.35.528,ObjectScenePairTask_local_study2,2024.1.4,None,2024-12-11 13h45.01.620014 -0500
instructions/Slide006.jpeg,study/imagelist_pair_study8.xlsx,study/images/Pair117_1.jpeg,1.4727590020331296,num_5,3,0,3,0,0,0,0,3,0,4,4,3,1393.518301532953,,,,,,,,,,,,,,1393.5096916710027,1393.518301532953,1394.9966041389853,1394.975798742962,1394.9758215609472,1394.9966041389853,1394.9966041389853,24.586636595078744,1397.9837373229675,num_5,1,1.8857515919953585,0.31192213809117675,,,,,,,,,,,,,,,,,,,,CBAS0004,1,2024-12-11_13h44.35.528,ObjectScenePairTask_local_study2,2024.1.4,None,2024-12-11 13h45.01.620014 -0500
instructions/Slide006.jpeg,study/imagelist_pair_study8.xlsx,study/images/Pair113_1.jpeg,1.4099295519016048,num_8,3,0,3,0,0,0,0,3,0,5,5,0,1397.9896833490347,,,,,,,,,,,,,,1397.984689048957,1397.9896833490347,1399.4038072050316,1399.3859302599449,1399.3859571099747,1399.4038072050316,1399.4038072050316,28.993893593084067,1402.388417426031,num_5,0,1.878538086079061,0.24801284598652273,,,,,,,,,,,,,,,,,,,,CBAS0004,1,2024-12-11_13h44.35.528,ObjectScenePairTask_local_study2,2024.1.4,None,2024-12-11 13h45.01.620014 -0500
instructions/Slide006.jpeg,study/imagelist_pair_study8.xlsx,study/images/Pair114_1.jpeg,2.5549644293641744,num_5,3,0,3,0,0,0,0,3,0,6,6,1,1402.3992169760168,,,,,,,,,,,,,,1402.3891017029528,1402.3992169760168,1404.9617688510334,1404.9410654710373,1404.941088977037,1404.9617688510334,1404.9617688510334,34.55178351607174,1407.9490346689709,num_5,1,1.400587267940864,0.24802406108938158,,,,,,,,,,,,,,,,,,,,CBAS0004,1,2024-12-11_13h44.35.528,ObjectScenePairTask_local_study2,2024.1.4,None,2024-12-11 13h45.01.620014 -0500
instructions/Slide006.jpeg,study/imagelist_pair_study8.xlsx,study/images/Pair122_1.jpeg,2.980854000511402,num_5,3,0,3,0,0,0,0,3,0,7,7,8,1407.9546206989326,,,,,,,,,,,,,,1407.9497445400339,1407.9546206989326,1410.9415817379486,1410.922629681998,1410.9226527080173,1410.9415817379486,1410.9415817379486,40.532023672014475,1413.9305557690095,num_5,1,1.1007589088985696,0.18402036104816943,,,,,,,,,,,,,,,,,,,,CBAS0004,1,2024-12-11_13h44.35.528,ObjectScenePairTask_local_study2,2024.1.4,None,2024-12-11 13h45.01.620014 -0500
instructions/Slide006.jpeg,study/imagelist_pair_study8.xlsx,study/images/Pair118_1.jpeg,2.4028516873732277,num_5,3,0,3,0,0,0,0,3,0,8,8,4,1413.9367019899655,,,,,,,,,,,,,,1413.9312875439646,1413.9367019899655,1416.3561986900168,1416.3320880249375,1416.3321210609283,1416.3561986900168,1416.3561986900168,45.947528662043624,1419.3361105369404,num_5,1,1.3980525250080973,0.24803698307368904,,,,,,,,,,,,,,,,,,,,CBAS0004,1,2024-12-11_13h44.35.528,ObjectScenePairTask_local_study2,2024.1.4,None,2024-12-11 13h45.01.620014 -0500
instructions/Slide006.jpeg,study/imagelist_pair_study8.xlsx,study/images/Pair126_1.jpeg,1.1058360378128178,num_5,3,0,3,0,0,0,0,3,0,9,9,11,1419.3456727679586,,,,,,,,,,,,,,1419.337243,1419.3456727679586,1420.462361074984,1420.4460311429575,1420.446055375971,1420.462361074984,1420.462361074984,50.05228491011076,1423.4522105540382,num_5,1,1.9798893060069531,0.2480345459189266,,,,,,,,,,,,,,,,,,,,CBAS0004,1,2024-12-11_13h44.35.528,ObjectScenePairTask_local_study2,2024.1.4,None,2024-12-11 13h45.01.620014 -0500
instructions/Slide006.jpeg,study/imagelist_pair_study8.xlsx,study/images/Pair119_1.jpeg,1.8197607362868482,num_8,3,0,3,0,0,0,0,3,0,10,10,5,1423.460366187035,,,,,,,,,,,,,,1423.4533367259428,1423.460366187035,1425.2910022779834,1425.2694984530099,1425.2695257689338,1425.2910022779834,1425.2910022779834,54.88164683710784,1428.2755568949506,num_8,1,1.0633355230093002,0.20797752600628883,,,,,,,,,,,,,,,,,,,,CBAS0004,1,2024-12-11_13h44.35.528,ObjectScenePairTask_local_study2,2024.1.4,None,2024-12-11 13h45.01.620014 -0500
instructions/Slide006.jpeg,study/imagelist_pair_study8.xlsx,study/images/Pair121_1.jpeg,1.3379748870957957,num_5,3,0,3,0,0,0,0,3,0,11,11,7,1428.2811544169672,,,,,,,,,,,,,,1428.2762577049434,1428.2811544169672,1429.6347334639868,1429.6117866649292,1429.611820505932,1429.6347334639868,1429.6347334639868,59.225561605067924,1432.6145999029977,num_5,1,1.3835283159278333,0.23197380604688078,,,,,,,,,,,,,,,,,,,,CBAS0004,1,2024-12-11_13h44.35.528,ObjectScenePairTask_local_study2,2024.1.4,None,2024-12-11 13h45.01.620014 -0500
instructions/Slide006.jpeg,study/imagelist_pair_study8.xlsx,study/images/Pair125_1.jpeg,2.9778399601332577,num_5,3,0,3,0,0,0,0,3,0,12,12,10,1432.6253370710183,,,,,,,,,,,,,,1432.6152910779929,1432.6253370710183,1435.6130467070034,1435.5931695549516,1435.5932026969967,1435.6130467070034,1435.6130467070034,65.20312393805943,1438.5961457219673,num_5,1,2.109260529978201,0.19195353495888412,,,,,,,,,,,,,,,,,,,,CBAS0004,1,2024-12-11_13h44.35.528,ObjectScenePairTask_local_study2,2024.1.4,None,2024-12-11 13h45.01.620014 -0500
