BlockFile,BlockType,CondsFile,ImageFile,Time,NewImg,CorrectResp,recogrun.thisRepN,recogrun.thisTrialN,recogrun.thisN,recogrun.thisIndex,recogblocks.thisRepN,recogblocks.thisTrialN,recogblocks.thisN,recogblocks.thisIndex,recogtrial.thisRepN,recogtrial.thisTrialN,recogtrial.thisN,recogtrial.thisIndex,thisRow.t,notes,Inst0.started,Intro_Recog.started,key_resp_4.started,Inst0.stopped,key_resp_4.keys,key_resp_4.rt,key_resp_4.duration,Recog_Start.started,InstRecog3_Img.started,InstRecog3_Resp.started,Recog_Start.stopped,Wait_Scanner.started,text_3.started,scanner_trigger.started,Wait_Scanner.stopped,scanner_trigger.keys,scanner_trigger.rt,scanner_trigger.duration,ScannerTrigger_X_2.started,text_5.started,fmri_resp_2.started,ScannerTrigger_X_2.stopped,fmri_resp_2.keys,fmri_resp_2.rt,fmri_resp_2.duration,recog_block.started,InstRecogBlock_Img.started,InstRecogBlock_Resp.started,recog_block.stopped,block_start_time,recog_trial1.started,ConType,BlockType,ImageDir,corrAns1,Recog_Fix.started,stimulus_start_time,Recog_Fix.stopped,RecogImage1_Img.started,Recog1_Resp.started,recog_trial1.stopped,stimulus_end_time,Recog1_Resp.keys,Recog1_Resp.corr,Recog1_Resp.rt,Recog1_Resp.duration,recog_block_end.started,block_end_time,recog_block_end.stopped,ScannerTrigger_X_1.started,text_4.started,fmri_resp.started,ScannerTrigger_X_1.stopped,fmri_resp.keys,fmri_resp.rt,fmri_resp.duration,finish.started,Feedback_Cue.started,finish.stopped,workerId,session,date,expName,psychopyVersion,frameRate,expStart,
,,,,,,,,,,,,,,,,,,,,,0.004170532999523857,0.016860482999618398,1.0134286459997384,2.8611570249995566,3,1.839171150999391,None,,,,,,,,,,,,,,,,,,,,,,,,,,,,,,,,,,,,,,,,,,,,,,,,,,,,,CBAS0006,1,2025-02-25_10h42.09.930,ObjectScenePairTask_local_recog_final,2024.1.4,None,2025-02-25 10h42.20.438393 -0500,
,,,,,,,,,,,,,,,,,,,,,,,,,,,,2.861191176999455,2.8677473849993476,3.860210002999338,13.990938941999957,,,,,,,,,,,,,,,,,,,,,,,,,,,,,,,,,,,,,,,,,,,,,,,,,CBAS0006,1,2025-02-25_10h42.09.930,ObjectScenePairTask_local_recog_final,2024.1.4,None,2025-02-25 10h42.20.438393 -0500,
,,,,,,,,,,,,,,,,,,,,,,,,,,,,,,,,13.990967049999199,14.002922647999185,14.002922647999185,31.686643330999686,num_divide,17.678517358000136,None,,,,,,,,,,,,,,,,,,,,,,,,,,,,,,,,,,,,,,,,,,CBAS0006,1,2025-02-25_10h42.09.930,ObjectScenePairTask_local_recog_final,2024.1.4,None,2025-02-25 10h42.20.438393 -0500,
recog/blocklist_recog_4.xlsx,instructions/Slide167.jpg,recog/imagelist_pair_recog10.xlsx,recog/images/PairN20_,1.7189843512248482,New,,0,0,0,3,0,0,0,1,0,0,0,15,37.137270778999664,,,,,,,,,,,,,,,,,,,,31.69831819799947,31.70495616699918,32.18845461799992,33.65640707499915,num_divide,1.460768726000424,None,33.67213405499933,33.705638771999475,34.670822477,37.10200885099948,3.444388037999488,37.113622647999364,1,instructions/Slide167.jpg,recog/images/PairN20_1.jpeg,num_5,37.137270778999664,3.479777087999537,38.820223909999186,38.820223909999186,38.820223909999186,41.65131388399914,7.993699975999334,num_5,1,2.8212050559995987,None,,,,,,,,,,,,,,CBAS0006,1,2025-02-25_10h42.09.930,ObjectScenePairTask_local_recog_final,2024.1.4,None,2025-02-25 10h42.20.438393 -0500,
recog/blocklist_recog_4.xlsx,instructions/Slide167.jpg,recog/imagelist_pair_recog10.xlsx,recog/images/Pair148_,2.7303385097220696,Studied,,0,0,0,3,0,0,0,1,0,1,1,1,41.68140676699932,,,,,,,,,,,,,,,,,,,,,,,,,,,,,,,,41.652166192999175,1,instructions/Slide167.jpg,recog/images/Pair148_1.jpeg,num_8,41.68140676699932,8.023938428999827,44.370114293999904,44.370114293999904,44.370114293999904,46.201659113999995,12.544037946999197,num_8,1,1.8150928920003935,None,,,,,,,,,,,,,,CBAS0006,1,2025-02-25_10h42.09.930,ObjectScenePairTask_local_recog_final,2024.1.4,None,2025-02-25 10h42.20.438393 -0500,
recog/blocklist_recog_4.xlsx,instructions/Slide167.jpg,recog/imagelist_pair_recog10.xlsx,recog/images/Pair153_,2.1807814440966453,Studied,,0,0,0,3,0,0,0,1,0,2,2,6,46.764674907999506,,,,,,,,,,,,,,,,,,,,,,,,,,,,,,,,46.202052333999745,3,instructions/Slide167.jpg,recog/images/Pair153_3.jpeg,num_5,46.764674907999506,13.10714980099965,48.38434914899972,48.38434914899972,48.38434914899972,49.40599218199986,15.748387066999385,num_8,0,1.0090159309993396,None,,,,,,,,,,,,,,CBAS0006,1,2025-02-25_10h42.09.930,ObjectScenePairTask_local_recog_final,2024.1.4,None,2025-02-25 10h42.20.438393 -0500,
recog/blocklist_recog_4.xlsx,instructions/Slide167.jpg,recog/imagelist_pair_recog10.xlsx,recog/images/Pair151_,2.97616537791538,Studied,,0,0,0,3,0,0,0,1,0,3,3,4,49.76036321599986,,,,,,,,,,,,,,,,,,,,,,,,,,,,,,,,49.406729263999296,1,instructions/Slide167.jpg,recog/images/Pair151_1.jpeg,num_8,49.76036321599986,16.10287712399986,52.382733047999864,52.382733047999864,52.382733047999864,53.54925551799988,19.89164465399972,num_8,1,1.1624312359999749,None,,,,,,,,,,,,,,CBAS0006,1,2025-02-25_10h42.09.930,ObjectScenePairTask_local_recog_final,2024.1.4,None,2025-02-25 10h42.20.438393 -0500,
recog/blocklist_recog_4.xlsx,instructions/Slide167.jpg,recog/imagelist_pair_recog10.xlsx,recog/images/PairN19_,2.390610841539729,New,,0,0,0,3,0,0,0,1,0,4,4,14,53.570879014999264,,,,,,,,,,,,,,,,,,,,,,,,,,,,,,,,53.550000647999696,2,instructions/Slide167.jpg,recog/images/PairN19_2.jpeg,num_5,53.570879014999264,19.91338137599996,55.94855678199929,55.94855678199929,55.94855678199929,57.14888411099946,23.49127095499989,num_8,0,1.19658407299994,None,,,,,,,,,,,,,,CBAS0006,1,2025-02-25_10h42.09.930,ObjectScenePairTask_local_recog_final,2024.1.4,None,2025-02-25 10h42.20.438393 -0500,
recog/blocklist_recog_4.xlsx,instructions/Slide167.jpg,recog/imagelist_pair_recog10.xlsx,recog/images/Pair147_,1.43148694183873,Studied,,0,0,0,3,0,0,0,1,0,5,5,0,57.50718011299978,,,,,,,,,,,,,,,,,,,,,,,,,,,,,,,,57.14969310699962,4,instructions/Slide167.jpg,recog/images/Pair147_4.jpeg,num_5,57.50718011299978,23.84966487099973,58.581338444999346,58.581338444999346,58.581338444999346,59.699309518999144,26.041690813999594,num_8,0,1.1080634250001822,None,,,,,,,,,,,,,,CBAS0006,1,2025-02-25_10h42.09.930,ObjectScenePairTask_local_recog_final,2024.1.4,None,2025-02-25 10h42.20.438393 -0500,
recog/blocklist_recog_4.xlsx,instructions/Slide167.jpg,recog/imagelist_pair_recog10.xlsx,recog/images/Pair149_,1.4204991585140054,Studied,,0,0,0,3,0,0,0,1,0,6,6,2,59.71763524299968,,,,,,,,,,,,,,,,,,,,,,,,,,,,,,,,59.699846051999884,1,instructions/Slide167.jpg,recog/images/Pair149_1.jpeg,num_8,59.71763524299968,26.06014017799953,61.11960136199923,61.11960136199923,61.11960136199923,62.86183615899972,29.204232301999582,num_5,0,1.7376647920000323,None,,,,,,,,,,,,,,CBAS0006,1,2025-02-25_10h42.09.930,ObjectScenePairTask_local_recog_final,2024.1.4,None,2025-02-25 10h42.20.438393 -0500,
recog/blocklist_recog_4.xlsx,instructions/Slide167.jpg,recog/imagelist_pair_recog10.xlsx,recog/images/Pair158_,2.2354047391524574,Studied,,0,0,0,3,0,0,0,1,0,7,7,10,62.88151542899959,,,,,,,,,,,,,,,,,,,,,,,,,,,,,,,,62.862688792999506,3,instructions/Slide167.jpg,recog/images/Pair158_3.jpeg,num_5,62.88151542899959,29.22401243799959,65.09342535199994,65.09342535199994,65.09342535199994,66.13063410999985,32.473021172999324,num_8,0,1.035782561000815,None,,,,,,,,,,,,,,CBAS0006,1,2025-02-25_10h42.09.930,ObjectScenePairTask_local_recog_final,2024.1.4,None,2025-02-25 10h42.20.438393 -0500,
recog/blocklist_recog_4.xlsx,instructions/Slide167.jpg,recog/imagelist_pair_recog10.xlsx,recog/images/Pair152_,2.3053845829062785,Studied,,0,0,0,3,0,0,0,1,0,8,8,5,66.15240344299946,,,,,,,,,,,,,,,,,,,,,,,,,,,,,,,,66.13139138999941,1,instructions/Slide167.jpg,recog/images/Pair152_1.jpeg,num_8,66.15240344299946,32.49490184199931,68.44217297899922,68.44217297899922,68.44217297899922,69.61110185399957,35.95348208099949,num_8,1,1.1590648599994893,None,,,,,,,,,,,,,,CBAS0006,1,2025-02-25_10h42.09.930,ObjectScenePairTask_local_recog_final,2024.1.4,None,2025-02-25 10h42.20.438393 -0500,
recog/blocklist_recog_4.xlsx,instructions/Slide167.jpg,recog/imagelist_pair_recog10.xlsx,recog/images/Pair160_,1.0138047898208715,Studied,,0,0,0,3,0,0,0,1,0,9,9,12,69.62926877099926,,,,,,,,,,,,,,,,,,,,,,,,,,,,,,,,69.61154924699986,1,instructions/Slide167.jpg,recog/images/Pair160_1.jpeg,num_8,69.62926877099926,35.97178320999956,70.62621640099951,70.62621640099951,70.62621640099951,72.61182156499945,38.954201105999346,num_5,0,1.9750278309993519,None,,,,,,,,,,,,,,CBAS0006,1,2025-02-25_10h42.09.930,ObjectScenePairTask_local_recog_final,2024.1.4,None,2025-02-25 10h42.20.438393 -0500,
recog/blocklist_recog_4.xlsx,instructions/Slide167.jpg,recog/imagelist_pair_recog10.xlsx,recog/images/PairN34_,2.739540628583928,New,,0,0,0,3,0,0,0,1,0,10,10,16,72.62886255199919,,,,,,,,,,,,,,,,,,,,,,,,,,,,,,,,72.61250458299946,4,instructions/Slide167.jpg,recog/images/PairN34_4.jpeg,num_5,72.62886255199919,38.97136556799978,75.35743508799987,75.35743508799987,75.35743508799987,77.01125710999986,43.353642458999275,num_8,0,1.6439815870007806,None,,,,,,,,,,,,,,CBAS0006,1,2025-02-25_10h42.09.930,ObjectScenePairTask_local_recog_final,2024.1.4,None,2025-02-25 10h42.20.438393 -0500,
recog/blocklist_recog_4.xlsx,instructions/Slide167.jpg,recog/imagelist_pair_recog10.xlsx,recog/images/Pair155_,1.4578366731555576,Studied,,0,0,0,3,0,0,0,1,0,11,11,8,77.39236371299921,,,,,,,,,,,,,,,,,,,,,,,,,,,,,,,,77.01180567099982,3,instructions/Slide167.jpg,recog/images/Pair155_3.jpeg,num_5,77.39236371299921,43.734865345999424,78.46228590199917,78.46228590199917,78.46228590199917,80.6428102029995,46.98519727499934,num_8,0,2.178898322999885,None,,,,,,,,,,,,,,CBAS0006,1,2025-02-25_10h42.09.930,ObjectScenePairTask_local_recog_final,2024.1.4,None,2025-02-25 10h42.20.438393 -0500,
recog/blocklist_recog_4.xlsx,instructions/Slide167.jpg,recog/imagelist_pair_recog10.xlsx,recog/images/Pair154_,1.0505609943391663,Studied,,0,0,0,3,0,0,0,1,0,12,12,7,80.66446754899971,,,,,,,,,,,,,,,,,,,,,,,,,,,,,,,,80.64352481199967,4,instructions/Slide167.jpg,recog/images/Pair154_4.jpeg,num_5,80.66446754899971,47.00692343999981,81.69115278199934,81.69115278199934,81.69115278199934,82.97270136799943,49.31508405099976,num_8,0,1.2700196270006927,None,,,,,,,,,,,,,,CBAS0006,1,2025-02-25_10h42.09.930,ObjectScenePairTask_local_recog_final,2024.1.4,None,2025-02-25 10h42.20.438393 -0500,
recog/blocklist_recog_4.xlsx,instructions/Slide167.jpg,recog/imagelist_pair_recog10.xlsx,recog/images/Pair150_,1.7163735598434522,Studied,,0,0,0,3,0,0,0,1,0,13,13,3,82.99044906099971,,,,,,,,,,,,,,,,,,,,,,,,,,,,,,,,82.97350692499913,1,instructions/Slide167.jpg,recog/images/Pair150_1.jpeg,num_8,82.99044906099971,49.332955227999264,84.68812822699965,84.68812822699965,84.68812822699965,86.89061655299975,53.233000986999286,num_8,1,2.2010673439999664,None,,,,,,,,,,,,,,CBAS0006,1,2025-02-25_10h42.09.930,ObjectScenePairTask_local_recog_final,2024.1.4,None,2025-02-25 10h42.20.438393 -0500,
recog/blocklist_recog_4.xlsx,instructions/Slide167.jpg,recog/imagelist_pair_recog10.xlsx,recog/images/Pair161_,2.169363576665198,Studied,,0,0,0,3,0,0,0,1,0,14,14,13,87.20708769099929,,,,,,,,,,,,,,,,,,,,,,,,,,,,,,,,86.89127428099982,4,instructions/Slide167.jpg,recog/images/Pair161_4.jpeg,num_5,87.20708769099929,53.54958844799967,89.07308751099936,89.07308751099936,89.07308751099936,91.11043461399913,57.45281526300005,num_8,0,2.032115358999363,None,,,,,,,,,,,,,,CBAS0006,1,2025-02-25_10h42.09.930,ObjectScenePairTask_local_recog_final,2024.1.4,None,2025-02-25 10h42.20.438393 -0500,
recog/blocklist_recog_4.xlsx,instructions/Slide167.jpg,recog/imagelist_pair_recog10.xlsx,recog/images/Pair159_,1.7844754705821892,Studied,,0,0,0,3,0,0,0,1,0,15,15,11,91.47749246799958,,,,,,,,,,,,,,,,,,,,,,,,,,,,,,,,91.11123795099957,2,instructions/Slide167.jpg,recog/images/Pair159_2.jpeg,num_5,91.47749246799958,57.81998191399998,92.90573396699983,92.90573396699983,92.90573396699983,94.68650754899954,61.02889292199961,num_5,1,1.775717679999616,None,,,,,,,,,,,,,,CBAS0006,1,2025-02-25_10h42.09.930,ObjectScenePairTask_local_recog_final,2024.1.4,None,2025-02-25 10h42.20.438393 -0500,
recog/blocklist_recog_4.xlsx,instructions/Slide167.jpg,recog/imagelist_pair_recog10.xlsx,recog/images/Pair157_,1.3237874173675828,Studied,,0,0,0,3,0,0,0,1,0,16,16,9,94.7049220129993,,,,,,,,,,,,,,,,,,,,,,,,,,,,,,,,94.68737670099927,4,instructions/Slide167.jpg,recog/images/Pair157_4.jpeg,num_5,94.7049220129993,61.047415507999176,96.02136142999916,96.02136142999916,96.02136142999916,97.65248990299915,63.99487267099994,num_5,1,1.6198475610008245,None,,,,,,,,,,,,,,CBAS0006,1,2025-02-25_10h42.09.930,ObjectScenePairTask_local_recog_final,2024.1.4,None,2025-02-25 10h42.20.438393 -0500,
recog/blocklist_recog_4.xlsx,instructions/Slide167.jpg,recog/imagelist_pair_recog10.xlsx,,,,,0,0,0,3,0,0,0,1,,,,,,,,,,,,,,,,,,,,,,,,,,,,,,,,,,,,,,,instructions/Slide167.jpg,,,,,,,,,,,,,,97.67454776899922,64.01695433499935,97.67483955699936,,,,,,,,,,,CBAS0006,1,2025-02-25_10h42.09.930,ObjectScenePairTask_local_recog_final,2024.1.4,None,2025-02-25 10h42.20.438393 -0500,
recog/blocklist_recog_4.xlsx,instructions/Slide165.jpg,recog/imagelist_scene_recog2.xlsx,recog/images/ScnN5_,1.8935773893457448,New,,0,0,0,3,0,1,1,0,0,0,0,15,101.40979247999985,,,,,,,,,,,,,,,,,,,,,,,,,,,97.67508067899962,97.70405112799926,98.67121713599954,101.3841341719999,67.726514813,101.39313261199914,1,instructions/Slide165.jpg,recog/images/ScnN5_1.jpeg,num_5,101.40979247999985,67.752301343,103.2729630469994,103.2729630469994,103.2729630469994,104.80352727399986,71.14590779299942,num_5,1,1.5205299700000978,None,,,,,,,,,,,,,,CBAS0006,1,2025-02-25_10h42.09.930,ObjectScenePairTask_local_recog_final,2024.1.4,None,2025-02-25 10h42.20.438393 -0500,
recog/blocklist_recog_4.xlsx,instructions/Slide165.jpg,recog/imagelist_scene_recog2.xlsx,recog/images/Scn13_,1.7254704192770185,Studied,,0,0,0,3,0,1,1,0,0,1,1,0,105.12814483299917,,,,,,,,,,,,,,,,,,,,,,,,,,,,,,,,104.8043911449995,1,instructions/Slide165.jpg,recog/images/Scn13_1.jpeg,num_8,105.12814483299917,71.47064080599921,106.53537760899962,106.53537760899962,106.53537760899962,108.20371073999922,74.54613139699995,num_8,1,1.657976184999825,None,,,,,,,,,,,,,,CBAS0006,1,2025-02-25_10h42.09.930,ObjectScenePairTask_local_recog_final,2024.1.4,None,2025-02-25 10h42.20.438393 -0500,
recog/blocklist_recog_4.xlsx,instructions/Slide165.jpg,recog/imagelist_scene_recog2.xlsx,recog/images/Scn23_,1.0279982099949496,Studied,,0,0,0,3,0,1,1,0,0,2,2,10,108.22200253999927,,,,,,,,,,,,,,,,,,,,,,,,,,,,,,,,108.20445528499931,1,instructions/Slide165.jpg,recog/images/Scn23_1.jpeg,num_8,108.22200253999927,74.56444723499953,109.23456263999924,109.23456263999924,109.23456263999924,110.45135434499934,76.7937391129999,num_8,1,1.2145625969997127,None,,,,,,,,,,,,,,CBAS0006,1,2025-02-25_10h42.09.930,ObjectScenePairTask_local_recog_final,2024.1.4,None,2025-02-25 10h42.20.438393 -0500,
recog/blocklist_recog_4.xlsx,instructions/Slide165.jpg,recog/imagelist_scene_recog2.xlsx,recog/images/ScnN6_,1.62115410124696,New,,0,0,0,3,0,1,1,0,0,3,3,16,110.47217027499937,,,,,,,,,,,,,,,,,,,,,,,,,,,,,,,,110.451928683,2,instructions/Slide165.jpg,recog/images/ScnN6_2.jpeg,num_5,110.47217027499937,76.81466457999977,112.06950938299997,112.06950938299997,112.06950938299997,113.76604840299933,80.10843658499925,num_5,1,1.6916403149998587,None,,,,,,,,,,,,,,CBAS0006,1,2025-02-25_10h42.09.930,ObjectScenePairTask_local_recog_final,2024.1.4,None,2025-02-25 10h42.20.438393 -0500,
recog/blocklist_recog_4.xlsx,instructions/Slide165.jpg,recog/imagelist_scene_recog2.xlsx,recog/images/Scn21_,1.1831138637700727,Studied,,0,0,0,3,0,1,1,0,0,4,4,8,113.78561158199955,,,,,,,,,,,,,,,,,,,,,,,,,,,,,,,,113.76680045799912,2,instructions/Slide165.jpg,recog/images/Scn21_2.jpeg,num_5,113.78561158199955,80.12812817199938,114.94938917599939,114.94938917599939,114.94938917599939,116.49984439199943,82.84222642299937,num_5,1,1.5477072339999722,None,,,,,,,,,,,,,,CBAS0006,1,2025-02-25_10h42.09.930,ObjectScenePairTask_local_recog_final,2024.1.4,None,2025-02-25 10h42.20.438393 -0500,
recog/blocklist_recog_4.xlsx,instructions/Slide165.jpg,recog/imagelist_scene_recog2.xlsx,recog/images/ScnN4_,1.406848268551056,New,,0,0,0,3,0,1,1,0,0,5,5,14,116.86796077899999,,,,,,,,,,,,,,,,,,,,,,,,,,,,,,,,116.5006398939995,1,instructions/Slide165.jpg,recog/images/ScnN4_1.jpeg,num_5,116.86796077899999,83.21045308199973,117.91483567899922,117.91483567899922,117.91483567899922,118.99676317599915,85.33914955699947,num_5,1,1.0703840950000085,None,,,,,,,,,,,,,,CBAS0006,1,2025-02-25_10h42.09.930,ObjectScenePairTask_local_recog_final,2024.1.4,None,2025-02-25 10h42.20.438393 -0500,
recog/blocklist_recog_4.xlsx,instructions/Slide165.jpg,recog/imagelist_scene_recog2.xlsx,recog/images/Scn88_,2.7973646606504365,Studied,,0,0,0,3,0,1,1,0,0,6,6,13,119.01563034099945,,,,,,,,,,,,,,,,,,,,,,,,,,,,,,,,118.99743663799927,2,instructions/Slide165.jpg,recog/images/Scn88_2.jpeg,num_5,119.01563034099945,85.35813468799915,121.7971401269997,121.7971401269997,121.7971401269997,123.31366919099946,89.65604732199972,num_8,0,1.5000669740002195,None,,,,,,,,,,,,,,CBAS0006,1,2025-02-25_10h42.09.930,ObjectScenePairTask_local_recog_final,2024.1.4,None,2025-02-25 10h42.20.438393 -0500,
recog/blocklist_recog_4.xlsx,instructions/Slide165.jpg,recog/imagelist_scene_recog2.xlsx,recog/images/Scn18_,2.4482936253135614,Studied,,0,0,0,3,0,1,1,0,0,7,7,5,123.33367214999998,,,,,,,,,,,,,,,,,,,,,,,,,,,,,,,,123.31406762999995,1,instructions/Slide165.jpg,recog/images/Scn18_1.jpeg,num_8,123.33367214999998,89.67617495599916,125.7632097199994,125.7632097199994,125.7632097199994,126.74769781399937,93.09008390300005,num_8,1,0.9742334669999764,None,,,,,,,,,,,,,,CBAS0006,1,2025-02-25_10h42.09.930,ObjectScenePairTask_local_recog_final,2024.1.4,None,2025-02-25 10h42.20.438393 -0500,
recog/blocklist_recog_4.xlsx,instructions/Slide165.jpg,recog/imagelist_scene_recog2.xlsx,recog/images/Scn15_,2.481704661445378,Studied,,0,0,0,3,0,1,1,0,0,8,8,2,126.76764888699927,,,,,,,,,,,,,,,,,,,,,,,,,,,,,,,,126.74850529799915,1,instructions/Slide165.jpg,recog/images/Scn15_1.jpeg,num_8,126.76764888699927,93.11013773800005,129.2452633919993,129.2452633919993,129.2452633919993,131.47684244299944,97.81922784899962,num_8,1,2.21998521399928,None,,,,,,,,,,,,,,CBAS0006,1,2025-02-25_10h42.09.930,ObjectScenePairTask_local_recog_final,2024.1.4,None,2025-02-25 10h42.20.438393 -0500,
recog/blocklist_recog_4.xlsx,instructions/Slide165.jpg,recog/imagelist_scene_recog2.xlsx,recog/images/Scn22_,2.4437255060938377,Studied,,0,0,0,3,0,1,1,0,0,9,9,9,131.86439943699952,,,,,,,,,,,,,,,,,,,,,,,,,,,,,,,,131.47760822799955,1,instructions/Slide165.jpg,recog/images/Scn22_1.jpeg,num_8,131.86439943699952,98.20688013799918,133.91533172699928,133.91533172699928,133.91533172699928,135.83161885999925,102.17400465899937,num_5,0,1.901888747999692,None,,,,,,,,,,,,,,CBAS0006,1,2025-02-25_10h42.09.930,ObjectScenePairTask_local_recog_final,2024.1.4,None,2025-02-25 10h42.20.438393 -0500,
recog/blocklist_recog_4.xlsx,instructions/Slide165.jpg,recog/imagelist_scene_recog2.xlsx,recog/images/Scn24_,2.171152936529896,Studied,,0,0,0,3,0,1,1,0,0,10,10,11,135.8506672679996,,,,,,,,,,,,,,,,,,,,,,,,,,,,,,,,135.8325150589999,1,instructions/Slide165.jpg,recog/images/Scn24_1.jpeg,num_8,135.8506672679996,102.1931526039998,137.99630674199943,137.99630674199943,137.99630674199943,139.14023097099926,105.48261178499979,num_8,1,1.1329066660000535,None,,,,,,,,,,,,,,CBAS0006,1,2025-02-25_10h42.09.930,ObjectScenePairTask_local_recog_final,2024.1.4,None,2025-02-25 10h42.20.438393 -0500,
recog/blocklist_recog_4.xlsx,instructions/Slide165.jpg,recog/imagelist_scene_recog2.xlsx,recog/images/Scn16_,1.2475310426137667,Studied,,0,0,0,3,0,1,1,0,0,11,11,3,139.45725924599992,,,,,,,,,,,,,,,,,,,,,,,,,,,,,,,,139.1409322439995,1,instructions/Slide165.jpg,recog/images/Scn16_1.jpeg,num_8,139.45725924599992,105.79977333699935,140.37903046199972,140.37903046199972,140.37903046199972,143.0903305869997,109.43271540799924,num_5,0,2.7021318600000086,None,,,,,,,,,,,,,,CBAS0006,1,2025-02-25_10h42.09.930,ObjectScenePairTask_local_recog_final,2024.1.4,None,2025-02-25 10h42.20.438393 -0500,
recog/blocklist_recog_4.xlsx,instructions/Slide165.jpg,recog/imagelist_scene_recog2.xlsx,recog/images/Scn71_,2.700305847925658,Studied,,0,0,0,3,0,1,1,0,0,12,12,4,143.3928159879997,,,,,,,,,,,,,,,,,,,,,,,,,,,,,,,,143.0910300789992,2,instructions/Slide165.jpg,recog/images/Scn71_2.jpeg,num_5,143.3928159879997,109.7352889549993,145.78907643999992,145.78907643999992,145.78907643999992,147.3554618599992,113.69784198599973,num_5,1,1.5640140539999265,None,,,,,,,,,,,,,,CBAS0006,1,2025-02-25_10h42.09.930,ObjectScenePairTask_local_recog_final,2024.1.4,None,2025-02-25 10h42.20.438393 -0500,
recog/blocklist_recog_4.xlsx,instructions/Slide165.jpg,recog/imagelist_scene_recog2.xlsx,recog/images/Scn45_,2.261562960627923,Studied,,0,0,0,3,0,1,1,0,0,13,13,12,147.3766602249998,,,,,,,,,,,,,,,,,,,,,,,,,,,,,,,,147.3559831349994,2,instructions/Slide165.jpg,recog/images/Scn45_2.jpeg,num_5,147.3766602249998,113.71911726799954,149.610364528,149.610364528,149.610364528,151.14638311099952,117.4887674419997,num_5,1,1.5267876550005894,None,,,,,,,,,,,,,,CBAS0006,1,2025-02-25_10h42.09.930,ObjectScenePairTask_local_recog_final,2024.1.4,None,2025-02-25 10h42.20.438393 -0500,
recog/blocklist_recog_4.xlsx,instructions/Slide165.jpg,recog/imagelist_scene_recog2.xlsx,recog/images/Scn73_,1.3181984498716846,Studied,,0,0,0,3,0,1,1,0,0,14,14,7,151.16376608499922,,,,,,,,,,,,,,,,,,,,,,,,,,,,,,,,151.14685527299935,1,instructions/Slide165.jpg,recog/images/Scn73_1.jpeg,num_8,151.16376608499922,117.50627096899916,152.4704251059993,152.4704251059993,152.4704251059993,153.55571226699976,119.8980932859995,num_8,1,1.074791432000893,None,,,,,,,,,,,,,,CBAS0006,1,2025-02-25_10h42.09.930,ObjectScenePairTask_local_recog_final,2024.1.4,None,2025-02-25 10h42.20.438393 -0500,
recog/blocklist_recog_4.xlsx,instructions/Slide165.jpg,recog/imagelist_scene_recog2.xlsx,recog/images/Scn96_,2.0979151106189735,Studied,,0,0,0,3,0,1,1,0,0,15,15,1,153.89546378499927,,,,,,,,,,,,,,,,,,,,,,,,,,,,,,,,153.55642067099961,1,instructions/Slide165.jpg,recog/images/Scn96_1.jpeg,num_8,153.89546378499927,120.23795848099962,155.65202748199954,155.65202748199954,155.65202748199954,156.85594258799938,123.19832939299977,num_8,1,1.1971608889998606,None,,,,,,,,,,,,,,CBAS0006,1,2025-02-25_10h42.09.930,ObjectScenePairTask_local_recog_final,2024.1.4,None,2025-02-25 10h42.20.438393 -0500,
recog/blocklist_recog_4.xlsx,instructions/Slide165.jpg,recog/imagelist_scene_recog2.xlsx,recog/images/Scn19_,1.4332837410119192,Studied,,0,0,0,3,0,1,1,0,0,16,16,6,156.87421830399944,,,,,,,,,,,,,,,,,,,,,,,,,,,,,,,,156.85668215399983,1,instructions/Slide165.jpg,recog/images/Scn19_1.jpeg,num_8,156.87421830399944,123.21671425099976,158.30402861399944,158.30402861399944,158.30402861399944,159.75519728399922,126.09758302699993,num_8,1,1.4491053070005364,None,,,,,,,,,,,,,,CBAS0006,1,2025-02-25_10h42.09.930,ObjectScenePairTask_local_recog_final,2024.1.4,None,2025-02-25 10h42.20.438393 -0500,
recog/blocklist_recog_4.xlsx,instructions/Slide165.jpg,recog/imagelist_scene_recog2.xlsx,,,,,0,0,0,3,0,1,1,0,,,,,,,,,,,,,,,,,,,,,,,,,,,,,,,,,,,,,,,instructions/Slide165.jpg,,,,,,,,,,,,,,159.78838727899983,126.13076243199976,159.78885705999983,,,,,,,,,,,CBAS0006,1,2025-02-25_10h42.09.930,ObjectScenePairTask_local_recog_final,2024.1.4,None,2025-02-25 10h42.20.438393 -0500,
recog/blocklist_recog_4.xlsx,instructions/Slide167.jpg,recog/imagelist_pair_recog11.xlsx,recog/images/PairN21_,1.9856834475008807,New,,0,0,0,3,0,2,2,2,0,0,0,14,163.27589491599974,,,,,,,,,,,,,,,,,,,,,,,,,,,159.78903158899993,159.81997342699924,160.78795069699936,163.25087332099974,129.5932536599994,163.25974510699962,3,instructions/Slide167.jpg,recog/images/PairN21_3.jpeg,num_5,163.27589491599974,129.61841593600002,165.2358242979999,165.2358242979999,165.2358242979999,166.88566814499973,133.22805075699944,num_5,1,1.6453996310001457,None,,,,,,,,,,,,,,CBAS0006,1,2025-02-25_10h42.09.930,ObjectScenePairTask_local_recog_final,2024.1.4,None,2025-02-25 10h42.20.438393 -0500,
recog/blocklist_recog_4.xlsx,instructions/Slide167.jpg,recog/imagelist_pair_recog11.xlsx,recog/images/Pair175_,2.1653922779342354,Studied,,0,0,0,3,0,2,2,2,0,1,1,13,166.90504647799935,,,,,,,,,,,,,,,,,,,,,,,,,,,,,,,,166.88692459099912,1,instructions/Slide167.jpg,recog/images/Pair175_1.jpeg,num_8,166.90504647799935,133.24754215399935,169.0514101659992,169.0514101659992,169.0514101659992,170.7158250249995,137.058225924,num_8,1,1.6538169870000274,None,,,,,,,,,,,,,,CBAS0006,1,2025-02-25_10h42.09.930,ObjectScenePairTask_local_recog_final,2024.1.4,None,2025-02-25 10h42.20.438393 -0500,
recog/blocklist_recog_4.xlsx,instructions/Slide167.jpg,recog/imagelist_pair_recog11.xlsx,recog/images/Pair174_,2.7671669694904715,Studied,,0,0,0,3,0,2,2,2,0,2,2,12,170.73252459099967,,,,,,,,,,,,,,,,,,,,,,,,,,,,,,,,170.71667512599925,4,instructions/Slide167.jpg,recog/images/Pair174_4.jpeg,num_5,170.73252459099967,137.075032449,173.48346328199932,173.48346328199932,173.48346328199932,174.59835061599915,140.94073700899935,num_8,0,1.1100223599996752,None,,,,,,,,,,,,,,CBAS0006,1,2025-02-25_10h42.09.930,ObjectScenePairTask_local_recog_final,2024.1.4,None,2025-02-25 10h42.20.438393 -0500,
recog/blocklist_recog_4.xlsx,instructions/Slide167.jpg,recog/imagelist_pair_recog11.xlsx,recog/images/Pair173_,2.848069787848691,Studied,,0,0,0,3,0,2,2,2,0,3,3,11,174.9387284859995,,,,,,,,,,,,,,,,,,,,,,,,,,,,,,,,174.59933268399982,2,instructions/Slide167.jpg,recog/images/Pair173_2.jpeg,num_5,174.9387284859995,141.28122370799974,177.44951980399946,177.44951980399946,177.44951980399946,178.9158599959992,145.25824075999935,num_5,1,1.4560142339996673,None,,,,,,,,,,,,,,CBAS0006,1,2025-02-25_10h42.09.930,ObjectScenePairTask_local_recog_final,2024.1.4,None,2025-02-25 10h42.20.438393 -0500,
recog/blocklist_recog_4.xlsx,instructions/Slide167.jpg,recog/imagelist_pair_recog11.xlsx,recog/images/Pair168_,1.0966624648217258,Studied,,0,0,0,3,0,2,2,2,0,4,4,6,179.38133876699976,,,,,,,,,,,,,,,,,,,,,,,,,,,,,,,,178.91650629999913,2,instructions/Slide167.jpg,recog/images/Pair168_2.jpeg,num_5,179.38133876699976,145.7238636559996,180.0149845829992,180.0149845829992,180.0149845829992,181.81348252399948,148.15586883199921,num_5,1,1.7941409530003511,None,,,,,,,,,,,,,,CBAS0006,1,2025-02-25_10h42.09.930,ObjectScenePairTask_local_recog_final,2024.1.4,None,2025-02-25 10h42.20.438393 -0500,
recog/blocklist_recog_4.xlsx,instructions/Slide167.jpg,recog/imagelist_pair_recog11.xlsx,recog/images/PairN22_,2.25075916932437,New,,0,0,0,3,0,2,2,2,0,5,5,15,182.14398784499917,,,,,,,,,,,,,,,,,,,,,,,,,,,,,,,,181.8143147539995,1,instructions/Slide167.jpg,recog/images/PairN22_1.jpeg,num_5,182.14398784499917,148.4865063219995,184.06409209699996,184.06409209699996,184.06409209699996,185.0991254369992,151.44151188199976,num_5,1,1.033120807999694,None,,,,,,,,,,,,,,CBAS0006,1,2025-02-25_10h42.09.930,ObjectScenePairTask_local_recog_final,2024.1.4,None,2025-02-25 10h42.20.438393 -0500,
recog/blocklist_recog_4.xlsx,instructions/Slide167.jpg,recog/imagelist_pair_recog11.xlsx,recog/images/Pair165_,1.2326729179676872,Studied,,0,0,0,3,0,2,2,2,0,6,6,3,185.4806815339998,,,,,,,,,,,,,,,,,,,,,,,,,,,,,,,,185.0998883229995,4,instructions/Slide167.jpg,recog/images/Pair165_4.jpeg,num_5,185.4806815339998,151.82314243499968,186.32758086099966,186.32758086099966,186.32758086099966,187.24515710299966,153.5875618959999,num_8,0,0.9056330599996727,None,,,,,,,,,,,,,,CBAS0006,1,2025-02-25_10h42.09.930,ObjectScenePairTask_local_recog_final,2024.1.4,None,2025-02-25 10h42.20.438393 -0500,
recog/blocklist_recog_4.xlsx,instructions/Slide167.jpg,recog/imagelist_pair_recog11.xlsx,recog/images/Pair169_,1.0326211169966708,Studied,,0,0,0,3,0,2,2,2,0,7,7,7,187.2609199519993,,,,,,,,,,,,,,,,,,,,,,,,,,,,,,,,187.24586028399972,1,instructions/Slide167.jpg,recog/images/Pair169_1.jpeg,num_8,187.2609199519993,153.60343171599925,188.27960479099966,188.27960479099966,188.27960479099966,189.29436378699938,155.63674790299956,num_8,1,1.0097928610002782,None,,,,,,,,,,,,,,CBAS0006,1,2025-02-25_10h42.09.930,ObjectScenePairTask_local_recog_final,2024.1.4,None,2025-02-25 10h42.20.438393 -0500,
recog/blocklist_recog_4.xlsx,instructions/Slide167.jpg,recog/imagelist_pair_recog11.xlsx,recog/images/Pair172_,1.6798149859464448,Studied,,0,0,0,3,0,2,2,2,0,8,8,10,189.6062872169996,,,,,,,,,,,,,,,,,,,,,,,,,,,,,,,,189.29503854499944,4,instructions/Slide167.jpg,recog/images/Pair172_4.jpeg,num_5,189.6062872169996,155.9487582769998,190.97857456199927,190.97857456199927,190.97857456199927,191.99631190499986,158.33869830799995,num_8,0,1.0068045480002183,None,,,,,,,,,,,,,,CBAS0006,1,2025-02-25_10h42.09.930,ObjectScenePairTask_local_recog_final,2024.1.4,None,2025-02-25 10h42.20.438393 -0500,
recog/blocklist_recog_4.xlsx,instructions/Slide167.jpg,recog/imagelist_pair_recog11.xlsx,recog/images/Pair164_,1.1695170217412967,Studied,,0,0,0,3,0,2,2,2,0,9,9,2,192.01622086499992,,,,,,,,,,,,,,,,,,,,,,,,,,,,,,,,191.9969821429995,3,instructions/Slide167.jpg,recog/images/Pair164_3.jpeg,num_5,192.01622086499992,158.358724705,193.16142977699928,193.16142977699928,193.16142977699928,194.54692763799994,160.88931094999953,num_8,0,1.3756556460002685,None,,,,,,,,,,,,,,CBAS0006,1,2025-02-25_10h42.09.930,ObjectScenePairTask_local_recog_final,2024.1.4,None,2025-02-25 10h42.20.438393 -0500,
recog/blocklist_recog_4.xlsx,instructions/Slide167.jpg,recog/imagelist_pair_recog11.xlsx,recog/images/Pair171_,1.0431601960325827,Studied,,0,0,0,3,0,2,2,2,0,10,10,9,194.5660284559999,,,,,,,,,,,,,,,,,,,,,,,,,,,,,,,,194.54745361699952,3,instructions/Slide167.jpg,recog/images/Pair171_3.jpeg,num_5,194.5660284559999,160.9085387239993,195.5941753849993,195.5941753849993,195.5941753849993,196.86172575599994,163.20411733199944,num_8,0,1.2630597909992503,None,,,,,,,,,,,,,,CBAS0006,1,2025-02-25_10h42.09.930,ObjectScenePairTask_local_recog_final,2024.1.4,None,2025-02-25 10h42.20.438393 -0500,
recog/blocklist_recog_4.xlsx,instructions/Slide167.jpg,recog/imagelist_pair_recog11.xlsx,recog/images/Pair163_,1.6605622614181852,Studied,,0,0,0,3,0,2,2,2,0,11,11,1,197.21383892499944,,,,,,,,,,,,,,,,,,,,,,,,,,,,,,,,196.8625735099995,4,instructions/Slide167.jpg,recog/images/Pair163_4.jpeg,num_5,197.21383892499944,163.55632575799973,198.5264968599995,198.5264968599995,198.5264968599995,200.44308353799988,166.7854633049992,num_8,0,1.9067388559997198,None,,,,,,,,,,,,,,CBAS0006,1,2025-02-25_10h42.09.930,ObjectScenePairTask_local_recog_final,2024.1.4,None,2025-02-25 10h42.20.438393 -0500,
recog/blocklist_recog_4.xlsx,instructions/Slide167.jpg,recog/imagelist_pair_recog11.xlsx,recog/images/Pair170_,1.997149640284799,Studied,,0,0,0,3,0,2,2,2,0,12,12,8,200.46244000099978,,,,,,,,,,,,,,,,,,,,,,,,,,,,,,,,200.44367241999953,1,instructions/Slide167.jpg,recog/images/Pair170_1.jpeg,num_8,200.46244000099978,166.80494224199992,202.43974765799976,202.43974765799976,202.43974765799976,204.34033548099978,170.6827176679999,num_8,1,1.8972437359998366,None,,,,,,,,,,,,,,CBAS0006,1,2025-02-25_10h42.09.930,ObjectScenePairTask_local_recog_final,2024.1.4,None,2025-02-25 10h42.20.438393 -0500,
recog/blocklist_recog_4.xlsx,instructions/Slide167.jpg,recog/imagelist_pair_recog11.xlsx,recog/images/PairN35_,2.6035654263671013,New,,0,0,0,3,0,2,2,2,0,13,13,16,204.36006571099915,,,,,,,,,,,,,,,,,,,,,,,,,,,,,,,,204.3409234189994,2,instructions/Slide167.jpg,recog/images/PairN35_2.jpeg,num_5,204.36006571099915,170.70257925499936,206.93901626499974,206.93901626499974,206.93901626499974,208.29510389999996,174.63749285099948,num_5,1,1.35019688400007,None,,,,,,,,,,,,,,CBAS0006,1,2025-02-25_10h42.09.930,ObjectScenePairTask_local_recog_final,2024.1.4,None,2025-02-25 10h42.20.438393 -0500,
recog/blocklist_recog_4.xlsx,instructions/Slide167.jpg,recog/imagelist_pair_recog11.xlsx,recog/images/Pair166_,2.752016905355159,Studied,,0,0,0,3,0,2,2,2,0,14,14,4,208.6372615499995,,,,,,,,,,,,,,,,,,,,,,,,,,,,,,,,208.29583549899962,1,instructions/Slide167.jpg,recog/images/Pair166_1.jpeg,num_8,208.6372615499995,174.97979911199945,211.0545261769994,211.0545261769994,211.0545261769994,212.14004329599993,178.482428841,num_8,1,1.07503066100071,None,,,,,,,,,,,,,,CBAS0006,1,2025-02-25_10h42.09.930,ObjectScenePairTask_local_recog_final,2024.1.4,None,2025-02-25 10h42.20.438393 -0500,
recog/blocklist_recog_4.xlsx,instructions/Slide167.jpg,recog/imagelist_pair_recog11.xlsx,recog/images/Pair162_,1.2454002310931893,Studied,,0,0,0,3,0,2,2,2,0,15,15,0,212.5099826759997,,,,,,,,,,,,,,,,,,,,,,,,,,,,,,,,212.14073694999934,1,instructions/Slide167.jpg,recog/images/Pair162_1.jpeg,num_8,212.5099826759997,178.85252286299965,213.3892892219992,213.3892892219992,213.3892892219992,214.58754500399937,180.92992542199954,num_8,1,1.1878914870003427,None,,,,,,,,,,,,,,CBAS0006,1,2025-02-25_10h42.09.930,ObjectScenePairTask_local_recog_final,2024.1.4,None,2025-02-25 10h42.20.438393 -0500,
recog/blocklist_recog_4.xlsx,instructions/Slide167.jpg,recog/imagelist_pair_recog11.xlsx,recog/images/Pair167_,2.4521225642238837,Studied,,0,0,0,3,0,2,2,2,0,16,16,5,214.60611254999912,,,,,,,,,,,,,,,,,,,,,,,,,,,,,,,,214.58821337599966,2,instructions/Slide167.jpg,recog/images/Pair167_2.jpeg,num_5,214.60611254999912,180.94862505899982,217.0359936749992,217.0359936749992,217.0359936749992,218.20324004599934,184.54562092599917,num_8,0,1.1571165620007378,None,,,,,,,,,,,,,,CBAS0006,1,2025-02-25_10h42.09.930,ObjectScenePairTask_local_recog_final,2024.1.4,None,2025-02-25 10h42.20.438393 -0500,
recog/blocklist_recog_4.xlsx,instructions/Slide167.jpg,recog/imagelist_pair_recog11.xlsx,,,,,0,0,0,3,0,2,2,2,,,,,,,,,,,,,,,,,,,,,,,,,,,,,,,,,,,,,,,instructions/Slide167.jpg,,,,,,,,,,,,,,218.23827700699985,184.5806517559995,218.23849653399975,,,,,,,,,,,CBAS0006,1,2025-02-25_10h42.09.930,ObjectScenePairTask_local_recog_final,2024.1.4,None,2025-02-25 10h42.20.438393 -0500,
recog/blocklist_recog_4.xlsx,instructions/Slide167.jpg,recog/imagelist_pair_recog12.xlsx,recog/images/Pair186_,1.5295432099409403,Studied,,0,0,0,3,0,3,3,3,0,0,0,9,222.65872515999945,,,,,,,,,,,,,,,,,,,,,,,,,,,218.23865719699916,218.2628076839992,219.2376496379993,222.63506635299927,188.97745181399932,222.64331364199916,1,instructions/Slide167.jpg,recog/images/Pair186_1.jpeg,num_8,222.65872515999945,189.0012584369997,224.1700834939993,224.1700834939993,224.1700834939993,225.28442329999962,191.6268076309998,num_8,1,1.1031130150004174,None,,,,,,,,,,,,,,CBAS0006,1,2025-02-25_10h42.09.930,ObjectScenePairTask_local_recog_final,2024.1.4,None,2025-02-25 10h42.20.438393 -0500,
recog/blocklist_recog_4.xlsx,instructions/Slide167.jpg,recog/imagelist_pair_recog12.xlsx,recog/images/Pair184_,2.855185399880699,Studied,,0,0,0,3,0,3,3,3,0,1,1,7,225.30112534599994,,,,,,,,,,,,,,,,,,,,,,,,,,,,,,,,225.28581107899936,1,instructions/Slide167.jpg,recog/images/Pair184_1.jpeg,num_8,225.30112534599994,191.6436390559993,228.15191543999936,228.15191543999936,228.15191543999936,229.35034707899922,195.69273122699997,num_8,1,1.1852443879997736,None,,,,,,,,,,,,,,CBAS0006,1,2025-02-25_10h42.09.930,ObjectScenePairTask_local_recog_final,2024.1.4,None,2025-02-25 10h42.20.438393 -0500,
recog/blocklist_recog_4.xlsx,instructions/Slide167.jpg,recog/imagelist_pair_recog12.xlsx,recog/images/Pair181_,2.874378650396892,Studied,,0,0,0,3,0,3,3,3,0,2,2,5,229.36748260399963,,,,,,,,,,,,,,,,,,,,,,,,,,,,,,,,229.35102796299998,2,instructions/Slide167.jpg,recog/images/Pair181_2.jpeg,num_5,229.36748260399963,195.70994190599959,232.23414513399985,232.23414513399985,232.23414513399985,233.36623282099936,199.70861953499934,num_8,0,1.1269855660002577,None,,,,,,,,,,,,,,CBAS0006,1,2025-02-25_10h42.09.930,ObjectScenePairTask_local_recog_final,2024.1.4,None,2025-02-25 10h42.20.438393 -0500,
recog/blocklist_recog_4.xlsx,instructions/Slide167.jpg,recog/imagelist_pair_recog12.xlsx,recog/images/Pair191_,2.656965858233385,Studied,,0,0,0,3,0,3,3,3,0,3,3,13,233.7044061759998,,,,,,,,,,,,,,,,,,,,,,,,,,,,,,,,233.36698817599972,4,instructions/Slide167.jpg,recog/images/Pair191_4.jpeg,num_5,233.7044061759998,200.04689140499977,236.03337806999934,236.03337806999934,236.03337806999934,237.85116258299968,204.1935459309998,num_8,0,1.815855484000167,None,,,,,,,,,,,,,,CBAS0006,1,2025-02-25_10h42.09.930,ObjectScenePairTask_local_recog_final,2024.1.4,None,2025-02-25 10h42.20.438393 -0500,
recog/blocklist_recog_4.xlsx,instructions/Slide167.jpg,recog/imagelist_pair_recog12.xlsx,recog/images/Pair183_,2.6955205163379725,Studied,,0,0,0,3,0,3,3,3,0,4,4,6,237.87211339399983,,,,,,,,,,,,,,,,,,,,,,,,,,,,,,,,237.85170415599987,3,instructions/Slide167.jpg,recog/images/Pair183_3.jpeg,num_5,237.87211339399983,204.21460263899917,240.54838204499993,240.54838204499993,240.54838204499993,241.54242637899915,207.88481395099916,num_8,0,0.9807448399997156,None,,,,,,,,,,,,,,CBAS0006,1,2025-02-25_10h42.09.930,ObjectScenePairTask_local_recog_final,2024.1.4,None,2025-02-25 10h42.20.438393 -0500,
recog/blocklist_recog_4.xlsx,instructions/Slide167.jpg,recog/imagelist_pair_recog12.xlsx,recog/images/PairN23_,2.57960915042389,New,,0,0,0,3,0,3,3,3,0,5,5,14,241.95430880299955,,,,,,,,,,,,,,,,,,,,,,,,,,,,,,,,241.5432441969997,3,instructions/Slide167.jpg,recog/images/PairN23_3.jpeg,num_5,241.95430880299955,208.29681008499938,244.13121524599956,244.13121524599956,244.13121524599956,245.93227080799988,212.2746570849995,num_8,0,1.7902299010002025,None,,,,,,,,,,,,,,CBAS0006,1,2025-02-25_10h42.09.930,ObjectScenePairTask_local_recog_final,2024.1.4,None,2025-02-25 10h42.20.438393 -0500,
recog/blocklist_recog_4.xlsx,instructions/Slide167.jpg,recog/imagelist_pair_recog12.xlsx,recog/images/Pair179_,2.9465692452099876,Studied,,0,0,0,3,0,3,3,3,0,6,6,3,246.25507351599936,,,,,,,,,,,,,,,,,,,,,,,,,,,,,,,,245.9330168739998,1,instructions/Slide167.jpg,recog/images/Pair179_1.jpeg,num_8,246.25507351599936,212.59756013199967,248.8797893709998,248.8797893709998,248.8797893709998,250.02804297499915,216.3704327839996,num_8,1,1.137440365000657,None,,,,,,,,,,,,,,CBAS0006,1,2025-02-25_10h42.09.930,ObjectScenePairTask_local_recog_final,2024.1.4,None,2025-02-25 10h42.20.438393 -0500,
recog/blocklist_recog_4.xlsx,instructions/Slide167.jpg,recog/imagelist_pair_recog12.xlsx,recog/images/Pair187_,1.4819496176251645,Studied,,0,0,0,3,0,3,3,3,0,7,7,10,250.39123086699965,,,,,,,,,,,,,,,,,,,,,,,,,,,,,,,,250.0287820829999,2,instructions/Slide167.jpg,recog/images/Pair187_2.jpeg,num_5,250.39123086699965,216.7337218979992,251.51224931899924,251.51224931899924,251.51224931899924,253.04382105699915,219.386205453,num_8,0,1.5209502970001267,None,,,,,,,,,,,,,,CBAS0006,1,2025-02-25_10h42.09.930,ObjectScenePairTask_local_recog_final,2024.1.4,None,2025-02-25 10h42.20.438393 -0500,
recog/blocklist_recog_4.xlsx,instructions/Slide167.jpg,recog/imagelist_pair_recog12.xlsx,recog/images/Pair176_,1.70389588278423,Studied,,0,0,0,3,0,3,3,3,0,8,8,0,253.0629766889997,,,,,,,,,,,,,,,,,,,,,,,,,,,,,,,,253.04452065999976,1,instructions/Slide167.jpg,recog/images/Pair176_1.jpeg,num_8,253.0629766889997,219.40546872100003,254.76125786899956,254.76125786899956,254.76125786899956,255.74282008199953,222.08520368499921,num_8,1,0.9761851960001877,None,,,,,,,,,,,,,,CBAS0006,1,2025-02-25_10h42.09.930,ObjectScenePairTask_local_recog_final,2024.1.4,None,2025-02-25 10h42.20.438393 -0500,
recog/blocklist_recog_4.xlsx,instructions/Slide167.jpg,recog/imagelist_pair_recog12.xlsx,recog/images/Pair178_,2.2060274938327935,Studied,,0,0,0,3,0,3,3,3,0,9,9,2,255.7622206999995,,,,,,,,,,,,,,,,,,,,,,,,,,,,,,,,255.7435243309992,1,instructions/Slide167.jpg,recog/images/Pair178_1.jpeg,num_8,255.7622206999995,222.10471982199942,257.9601472919994,257.9601472919994,257.9601472919994,259.9423079949993,226.2846941989992,num_8,1,1.9690601940001216,None,,,,,,,,,,,,,,CBAS0006,1,2025-02-25_10h42.09.930,ObjectScenePairTask_local_recog_final,2024.1.4,None,2025-02-25 10h42.20.438393 -0500,
recog/blocklist_recog_4.xlsx,instructions/Slide167.jpg,recog/imagelist_pair_recog12.xlsx,recog/images/Pair190_,1.5932735816346648,Studied,,0,0,0,3,0,3,3,3,0,10,10,12,259.9612809799992,,,,,,,,,,,,,,,,,,,,,,,,,,,,,,,,259.9430167979999,4,instructions/Slide167.jpg,recog/images/Pair190_4.jpeg,num_5,259.9612809799992,226.30373631899965,261.53002743399975,261.53002743399975,261.53002743399975,262.9096412179997,229.25202538899975,num_8,0,1.3751592219996382,None,,,,,,,,,,,,,,CBAS0006,1,2025-02-25_10h42.09.930,ObjectScenePairTask_local_recog_final,2024.1.4,None,2025-02-25 10h42.20.438393 -0500,
recog/blocklist_recog_4.xlsx,instructions/Slide167.jpg,recog/imagelist_pair_recog12.xlsx,recog/images/Pair188_,2.092293903594197,Studied,,0,0,0,3,0,3,3,3,0,11,11,11,262.93014366899934,,,,,,,,,,,,,,,,,,,,,,,,,,,,,,,,262.910503094,1,instructions/Slide167.jpg,recog/images/Pair188_1.jpeg,num_8,262.93014366899934,229.27266262600006,264.99509935399965,264.99509935399965,264.99509935399965,266.32498841099914,232.6673790499999,num_8,1,1.3261212170000363,None,,,,,,,,,,,,,,CBAS0006,1,2025-02-25_10h42.09.930,ObjectScenePairTask_local_recog_final,2024.1.4,None,2025-02-25 10h42.20.438393 -0500,
recog/blocklist_recog_4.xlsx,instructions/Slide167.jpg,recog/imagelist_pair_recog12.xlsx,recog/images/Pair185_,1.3948020706805053,Studied,,0,0,0,3,0,3,3,3,0,12,12,8,266.3451188129993,,,,,,,,,,,,,,,,,,,,,,,,,,,,,,,,266.32593309799995,4,instructions/Slide167.jpg,recog/images/Pair185_4.jpeg,num_5,266.3451188129993,232.6876408399994,267.7226116749998,267.7226116749998,267.7226116749998,269.49856215,235.84094276299948,num_5,1,1.766535606000616,None,,,,,,,,,,,,,,CBAS0006,1,2025-02-25_10h42.09.930,ObjectScenePairTask_local_recog_final,2024.1.4,None,2025-02-25 10h42.20.438393 -0500,
recog/blocklist_recog_4.xlsx,instructions/Slide167.jpg,recog/imagelist_pair_recog12.xlsx,recog/images/Pair177_,2.147279992791065,Studied,,0,0,0,3,0,3,3,3,0,13,13,1,269.51422901599926,,,,,,,,,,,,,,,,,,,,,,,,,,,,,,,,269.49912332499935,1,instructions/Slide167.jpg,recog/images/Pair177_1.jpeg,num_8,269.51422901599926,235.85674135099998,271.6431656599998,271.6431656599998,271.6431656599998,272.53886758299996,238.88125350599967,num_8,1,0.8860635979999643,None,,,,,,,,,,,,,,CBAS0006,1,2025-02-25_10h42.09.930,ObjectScenePairTask_local_recog_final,2024.1.4,None,2025-02-25 10h42.20.438393 -0500,
recog/blocklist_recog_4.xlsx,instructions/Slide167.jpg,recog/imagelist_pair_recog12.xlsx,recog/images/PairN24_,2.0918588263726337,New,,0,0,0,3,0,3,3,3,0,14,14,15,272.8791900669994,,,,,,,,,,,,,,,,,,,,,,,,,,,,,,,,272.5394449179994,4,instructions/Slide167.jpg,recog/images/PairN24_4.jpeg,num_5,272.8791900669994,239.2216911129999,274.6266349669995,274.6266349669995,274.6266349669995,276.02724899699933,242.3696306259999,num_5,1,1.3985613070008185,None,,,,,,,,,,,,,,CBAS0006,1,2025-02-25_10h42.09.930,ObjectScenePairTask_local_recog_final,2024.1.4,None,2025-02-25 10h42.20.438393 -0500,
recog/blocklist_recog_4.xlsx,instructions/Slide167.jpg,recog/imagelist_pair_recog12.xlsx,recog/images/Pair180_,2.620274010920973,Studied,,0,0,0,3,0,3,3,3,0,15,15,4,276.34651040599965,,,,,,,,,,,,,,,,,,,,,,,,,,,,,,,,276.0278089099993,1,instructions/Slide167.jpg,recog/images/Pair180_1.jpeg,num_8,276.34651040599965,242.68901359999927,278.6423561299998,278.6423561299998,278.6423561299998,279.8033401929997,246.14572181099993,num_8,1,1.1508930030004194,None,,,,,,,,,,,,,,CBAS0006,1,2025-02-25_10h42.09.930,ObjectScenePairTask_local_recog_final,2024.1.4,None,2025-02-25 10h42.20.438393 -0500,
recog/blocklist_recog_4.xlsx,instructions/Slide167.jpg,recog/imagelist_pair_recog12.xlsx,recog/images/PairN36_,2.2294016356245283,New,,0,0,0,3,0,3,3,3,0,16,16,16,279.8218039909998,,,,,,,,,,,,,,,,,,,,,,,,,,,,,,,,279.80392742799995,4,instructions/Slide167.jpg,recog/images/PairN36_4.jpeg,num_5,279.8218039909998,246.1643103589995,282.0247046659997,282.0247046659997,282.0247046659997,284.4039213779997,250.74633712899958,num_5,1,2.3684930400004305,None,,,,,,,,,,,,,,CBAS0006,1,2025-02-25_10h42.09.930,ObjectScenePairTask_local_recog_final,2024.1.4,None,2025-02-25 10h42.20.438393 -0500,
recog/blocklist_recog_4.xlsx,instructions/Slide167.jpg,recog/imagelist_pair_recog12.xlsx,,,,,0,0,0,3,0,3,3,3,,,,,,,,,,,,,,,,,,,,,,,,,,,,,,,,,,,,,,,instructions/Slide167.jpg,,,,,,,,,,,,,,284.4457596639995,250.78813457699925,284.4460746119994,,,,,,,,,,,CBAS0006,1,2025-02-25_10h42.09.930,ObjectScenePairTask_local_recog_final,2024.1.4,None,2025-02-25 10h42.20.438393 -0500,
recog/blocklist_recog_4.xlsx,,,,,,,0,0,0,3,,,,,,,,,,,,,,,,,,,,,,,,,,,,,,,,,,,,,,,,,,,,,,,,,,,,,,,,,,,,284.48231119199954,284.4900699619993,286.43734400799985,320.3255114269996,space,33.88355567800045,None,,,,CBAS0006,1,2025-02-25_10h42.09.930,ObjectScenePairTask_local_recog_final,2024.1.4,None,2025-02-25 10h42.20.438393 -0500,
recog/blocklist_recog_1.xlsx,instructions/Slide166.jpg,recog/imagelist_object_recog1.xlsx,recog/images/Obj46_,1.107355073118383,Studied,,0,1,1,0,0,0,0,0,0,0,0,12,347.56956756099953,,,,,,,,,,,,,,,,,,,,320.3260597209992,320.3321059609998,320.82691976299975,344.15801815099985,num_divide,23.32621912400009,None,344.1674267389999,344.196499357,345.1698419229997,347.13440970399915,2.976169280999784,347.1435774499996,2,instructions/Slide166.jpg,recog/images/Obj46_2.jpeg,num_5,347.56956756099953,3.411473508000199,348.2402600509995,348.2402600509995,348.2402600509995,349.92386173999967,5.765626045000317,num_5,1,1.6809349440000005,None,,,,,,,,,,,,,,CBAS0006,1,2025-02-25_10h42.09.930,ObjectScenePairTask_local_recog_final,2024.1.4,None,2025-02-25 10h42.20.438393 -0500,
recog/blocklist_recog_1.xlsx,instructions/Slide166.jpg,recog/imagelist_object_recog1.xlsx,recog/images/Obj86_,1.5518931745454532,Studied,,0,1,1,0,0,0,0,0,0,1,1,2,349.9415808349995,,,,,,,,,,,,,,,,,,,,,,,,,,,,,,,,349.92473545099983,2,instructions/Slide166.jpg,recog/images/Obj86_2.jpeg,num_5,349.9415808349995,5.783481212999504,351.48539734399947,351.48539734399947,351.48539734399947,352.75070012299966,8.592468742000165,num_5,1,1.2517570980007804,None,,,,,,,,,,,,,,CBAS0006,1,2025-02-25_10h42.09.930,ObjectScenePairTask_local_recog_final,2024.1.4,None,2025-02-25 10h42.20.438393 -0500,
recog/blocklist_recog_1.xlsx,instructions/Slide166.jpg,recog/imagelist_object_recog1.xlsx,recog/images/Obj65_,2.695977753201806,Studied,,0,1,1,0,0,0,0,0,0,2,2,6,353.07977264799956,,,,,,,,,,,,,,,,,,,,,,,,,,,,,,,,352.7513910969992,2,instructions/Slide166.jpg,recog/images/Obj65_2.jpeg,num_5,353.07977264799956,8.92164682099974,355.4515001719992,355.4515001719992,355.4515001719992,358.12038684399977,13.962155383999743,num_5,1,2.6536943910004993,None,,,,,,,,,,,,,,CBAS0006,1,2025-02-25_10h42.09.930,ObjectScenePairTask_local_recog_final,2024.1.4,None,2025-02-25 10h42.20.438393 -0500,
recog/blocklist_recog_1.xlsx,instructions/Slide166.jpg,recog/imagelist_object_recog1.xlsx,recog/images/ObjN2_,1.5973933950770507,New,,0,1,1,0,0,0,0,0,0,3,3,15,358.4586262139992,,,,,,,,,,,,,,,,,,,,,,,,,,,,,,,,358.1211195759997,1,instructions/Slide166.jpg,recog/images/ObjN2_1.jpeg,num_5,358.4586262139992,14.300495542000135,359.7330064629996,359.7330064629996,359.7330064629996,361.44992273799926,17.291682524999487,num_5,1,1.700160051000239,None,,,,,,,,,,,,,,CBAS0006,1,2025-02-25_10h42.09.930,ObjectScenePairTask_local_recog_final,2024.1.4,None,2025-02-25 10h42.20.438393 -0500,
recog/blocklist_recog_1.xlsx,instructions/Slide166.jpg,recog/imagelist_object_recog1.xlsx,recog/images/Obj41_,2.7716498797819846,Studied,,0,1,1,0,0,0,0,0,0,4,4,0,361.46522313199966,,,,,,,,,,,,,,,,,,,,,,,,,,,,,,,,361.450319347,2,instructions/Slide166.jpg,recog/images/Obj41_2.jpeg,num_5,361.46522313199966,17.30708734699965,364.22942284299916,364.22942284299916,364.22942284299916,365.53293883399965,21.374708848999944,num_5,1,1.2997606270000688,None,,,,,,,,,,,,,,CBAS0006,1,2025-02-25_10h42.09.930,ObjectScenePairTask_local_recog_final,2024.1.4,None,2025-02-25 10h42.20.438393 -0500,
recog/blocklist_recog_1.xlsx,instructions/Slide166.jpg,recog/imagelist_object_recog1.xlsx,recog/images/Obj4_,1.9169916314665243,Studied,,0,1,1,0,0,0,0,0,0,5,5,5,365.55138607799927,,,,,,,,,,,,,,,,,,,,,,,,,,,,,,,,365.533780578,1,instructions/Slide166.jpg,recog/images/Obj4_1.jpeg,num_8,365.55138607799927,21.393237243999465,367.46380921799937,367.46380921799937,367.46380921799937,369.5654103299994,25.40718531499988,num_5,0,2.097341843999857,None,,,,,,,,,,,,,,CBAS0006,1,2025-02-25_10h42.09.930,ObjectScenePairTask_local_recog_final,2024.1.4,None,2025-02-25 10h42.20.438393 -0500,
recog/blocklist_recog_1.xlsx,instructions/Slide166.jpg,recog/imagelist_object_recog1.xlsx,recog/images/ObjN1_,2.358368478146883,New,,0,1,1,0,0,0,0,0,0,6,6,14,369.58302517099946,,,,,,,,,,,,,,,,,,,,,,,,,,,,,,,,369.5662651019993,1,instructions/Slide166.jpg,recog/images/ObjN1_1.jpeg,num_5,369.58302517099946,25.424917745999664,371.9288468909999,371.9288468909999,371.9288468909999,372.9475463049994,28.789311198999712,num_5,1,1.0163775809996878,None,,,,,,,,,,,,,,CBAS0006,1,2025-02-25_10h42.09.930,ObjectScenePairTask_local_recog_final,2024.1.4,None,2025-02-25 10h42.20.438393 -0500,
recog/blocklist_recog_1.xlsx,instructions/Slide166.jpg,recog/imagelist_object_recog1.xlsx,recog/images/Obj9_,2.3106178596062454,Studied,,0,1,1,0,0,0,0,0,0,7,7,11,372.964981524,,,,,,,,,,,,,,,,,,,,,,,,,,,,,,,,372.948073388,1,instructions/Slide166.jpg,recog/images/Obj9_1.jpeg,num_8,372.964981524,28.806866883999646,375.2497361449996,375.2497361449996,375.2497361449996,376.130019446,31.971785048999664,num_8,1,0.8634135219999735,None,,,,,,,,,,,,,,CBAS0006,1,2025-02-25_10h42.09.930,ObjectScenePairTask_local_recog_final,2024.1.4,None,2025-02-25 10h42.20.438393 -0500,
recog/blocklist_recog_1.xlsx,instructions/Slide166.jpg,recog/imagelist_object_recog1.xlsx,recog/images/Obj48_,2.8567041152273482,Studied,,0,1,1,0,0,0,0,0,0,8,8,13,376.145052848,,,,,,,,,,,,,,,,,,,,,,,,,,,,,,,,376.13042949199917,1,instructions/Slide166.jpg,recog/images/Obj48_1.jpeg,num_8,376.145052848,31.9869457169998,378.99417031099983,378.99417031099983,378.99417031099983,379.8428349199994,35.68459943000016,num_8,1,0.8390062379994561,None,,,,,,,,,,,,,,CBAS0006,1,2025-02-25_10h42.09.930,ObjectScenePairTask_local_recog_final,2024.1.4,None,2025-02-25 10h42.20.438393 -0500,
recog/blocklist_recog_1.xlsx,instructions/Slide166.jpg,recog/imagelist_object_recog1.xlsx,recog/images/Obj12_,1.1447112069761556,Studied,,0,1,1,0,0,0,0,0,0,9,9,1,380.3000134299991,,,,,,,,,,,,,,,,,,,,,,,,,,,,,,,,379.8438525779993,2,instructions/Slide166.jpg,recog/images/Obj12_2.jpeg,num_5,380.3000134299991,36.141954617999545,380.9942028739997,380.9942028739997,380.9942028739997,382.97787687599975,38.81963751799958,num_5,1,1.966985768000086,None,,,,,,,,,,,,,,CBAS0006,1,2025-02-25_10h42.09.930,ObjectScenePairTask_local_recog_final,2024.1.4,None,2025-02-25 10h42.20.438393 -0500,
recog/blocklist_recog_1.xlsx,instructions/Slide166.jpg,recog/imagelist_object_recog1.xlsx,recog/images/Obj69_,2.47371093229681,Studied,,0,1,1,0,0,0,0,0,0,10,10,7,382.9926512139991,,,,,,,,,,,,,,,,,,,,,,,,,,,,,,,,382.9782828569996,1,instructions/Slide166.jpg,recog/images/Obj69_1.jpeg,num_8,382.9926512139991,38.834489684999426,385.4459534209991,385.4459534209991,385.4459534209991,386.2932136169993,42.13498410400007,num_8,1,0.8431830839999748,None,,,,,,,,,,,,,,CBAS0006,1,2025-02-25_10h42.09.930,ObjectScenePairTask_local_recog_final,2024.1.4,None,2025-02-25 10h42.20.438393 -0500,
recog/blocklist_recog_1.xlsx,instructions/Slide166.jpg,recog/imagelist_object_recog1.xlsx,recog/images/ObjN3_,2.8714739690530395,New,,0,1,1,0,0,0,0,0,0,11,11,16,386.3108588399991,,,,,,,,,,,,,,,,,,,,,,,,,,,,,,,,386.2941186369999,1,instructions/Slide166.jpg,recog/images/ObjN3_1.jpeg,num_5,386.3108588399991,42.15274567199958,389.1747197199993,389.1747197199993,389.1747197199993,390.5736294669996,46.41539859400018,num_8,0,1.3865514499993878,None,,,,,,,,,,,,,,CBAS0006,1,2025-02-25_10h42.09.930,ObjectScenePairTask_local_recog_final,2024.1.4,None,2025-02-25 10h42.20.438393 -0500,
recog/blocklist_recog_1.xlsx,instructions/Slide166.jpg,recog/imagelist_object_recog1.xlsx,recog/images/Obj7_,2.3442717961926283,Studied,,0,1,1,0,0,0,0,0,0,12,12,8,390.5886068059999,,,,,,,,,,,,,,,,,,,,,,,,,,,,,,,,390.57428296499984,2,instructions/Slide166.jpg,recog/images/Obj7_2.jpeg,num_5,390.5886068059999,46.43051350799942,392.9240402559999,392.9240402559999,392.9240402559999,393.87416684799973,49.715927616000045,num_8,0,0.9331524680001166,None,,,,,,,,,,,,,,CBAS0006,1,2025-02-25_10h42.09.930,ObjectScenePairTask_local_recog_final,2024.1.4,None,2025-02-25 10h42.20.438393 -0500,
recog/blocklist_recog_1.xlsx,instructions/Slide166.jpg,recog/imagelist_object_recog1.xlsx,recog/images/Obj30_,1.4480869948426776,Studied,,0,1,1,0,0,0,0,0,0,13,13,3,393.8917970909997,,,,,,,,,,,,,,,,,,,,,,,,,,,,,,,,393.8745628629995,1,instructions/Slide166.jpg,recog/images/Obj30_1.jpeg,num_8,393.8917970909997,49.73369326400007,395.3226456069997,395.3226456069997,395.3226456069997,396.3550164089993,52.196778456000175,num_8,1,1.0225221459995737,None,,,,,,,,,,,,,,CBAS0006,1,2025-02-25_10h42.09.930,ObjectScenePairTask_local_recog_final,2024.1.4,None,2025-02-25 10h42.20.438393 -0500,
recog/blocklist_recog_1.xlsx,instructions/Slide166.jpg,recog/imagelist_object_recog1.xlsx,recog/images/Obj78_,2.927537800708358,Studied,,0,1,1,0,0,0,0,0,0,14,14,9,396.36953621299926,,,,,,,,,,,,,,,,,,,,,,,,,,,,,,,,396.3557438859998,2,instructions/Slide166.jpg,recog/images/Obj78_2.jpeg,num_5,396.36953621299926,52.21146779399987,399.2762614049998,399.2762614049998,399.2762614049998,401.09385994399963,56.935636100999545,num_8,0,1.8128590119995351,None,,,,,,,,,,,,,,CBAS0006,1,2025-02-25_10h42.09.930,ObjectScenePairTask_local_recog_final,2024.1.4,None,2025-02-25 10h42.20.438393 -0500,
recog/blocklist_recog_1.xlsx,instructions/Slide166.jpg,recog/imagelist_object_recog1.xlsx,recog/images/Obj34_,1.458068508426385,Studied,,0,1,1,0,0,0,0,0,0,15,15,4,401.1123792419994,,,,,,,,,,,,,,,,,,,,,,,,,,,,,,,,401.0951802869995,2,instructions/Slide166.jpg,recog/images/Obj34_2.jpeg,num_5,401.1123792419994,56.95424133300003,402.5417617329995,402.5417617329995,402.5417617329995,403.8532584529994,59.695027558999755,num_5,1,1.3074039690000063,None,,,,,,,,,,,,,,CBAS0006,1,2025-02-25_10h42.09.930,ObjectScenePairTask_local_recog_final,2024.1.4,None,2025-02-25 10h42.20.438393 -0500,
recog/blocklist_recog_1.xlsx,instructions/Slide166.jpg,recog/imagelist_object_recog1.xlsx,recog/images/Obj8_,1.0632828788734012,Studied,,0,1,1,0,0,0,0,0,0,16,16,10,403.8699728239999,,,,,,,,,,,,,,,,,,,,,,,,,,,,,,,,403.85403707299974,2,instructions/Slide166.jpg,recog/images/Obj8_2.jpeg,num_5,403.8699728239999,59.71186917199975,404.9178892109994,404.9178892109994,404.9178892109994,406.1787090529997,62.02047574199969,num_5,1,1.2513094969999656,None,,,,,,,,,,,,,,CBAS0006,1,2025-02-25_10h42.09.930,ObjectScenePairTask_local_recog_final,2024.1.4,None,2025-02-25 10h42.20.438393 -0500,
recog/blocklist_recog_1.xlsx,instructions/Slide166.jpg,recog/imagelist_object_recog1.xlsx,,,,,0,1,1,0,0,0,0,0,,,,,,,,,,,,,,,,,,,,,,,,,,,,,,,,,,,,,,,instructions/Slide166.jpg,,,,,,,,,,,,,,406.2291506399997,62.0709065230003,406.2295319199993,,,,,,,,,,,CBAS0006,1,2025-02-25_10h42.09.930,ObjectScenePairTask_local_recog_final,2024.1.4,None,2025-02-25 10h42.20.438393 -0500,
recog/blocklist_recog_1.xlsx,instructions/Slide167.jpg,recog/imagelist_pair_recog3.xlsx,recog/images/Pair33_,2.330705567163432,,Studied,0,1,1,0,0,1,1,3,0,0,0,1,412.1917845349999,,,,,,,,,,,,,,,,,,,,,,,,,,,406.22970499999974,406.25573683399944,407.2228141789992,412.15062626599956,67.99240426100005,412.1669491999992,1,instructions/Slide167.jpg,recog/images/Pair33_1.jpeg,num_8,412.1917845349999,68.0336880220002,414.4723044179991,414.4723044179991,414.4723044179991,416.0195096179996,71.86127527299959,num_8,1,1.5448277430004964,None,,,,,,,,,,,,,,CBAS0006,1,2025-02-25_10h42.09.930,ObjectScenePairTask_local_recog_final,2024.1.4,None,2025-02-25 10h42.20.438393 -0500,
recog/blocklist_recog_1.xlsx,instructions/Slide167.jpg,recog/imagelist_pair_recog3.xlsx,recog/images/Pair44_,1.7062269982216136,,Studied,0,1,1,0,0,1,1,3,0,1,1,10,416.03989292299957,,,,,,,,,,,,,,,,,,,,,,,,,,,,,,,,416.0203995289994,3,instructions/Slide167.jpg,recog/images/Pair44_3.jpeg,num_5,416.03989292299957,71.88180002700028,417.7337577239996,417.7337577239996,417.7337577239996,418.9664408029994,74.80820966600004,num_8,0,1.2194220949995724,None,,,,,,,,,,,,,,CBAS0006,1,2025-02-25_10h42.09.930,ObjectScenePairTask_local_recog_final,2024.1.4,None,2025-02-25 10h42.20.438393 -0500,
recog/blocklist_recog_1.xlsx,instructions/Slide167.jpg,recog/imagelist_pair_recog3.xlsx,recog/images/Pair37_,1.311016283283185,,Studied,0,1,1,0,0,1,1,3,0,2,2,3,418.9844825299997,,,,,,,,,,,,,,,,,,,,,,,,,,,,,,,,418.9671353569993,1,instructions/Slide167.jpg,recog/images/Pair37_1.jpeg,num_8,418.9844825299997,74.8263661359997,420.2832400899997,420.2832400899997,420.2832400899997,421.1869933099997,77.02875460199994,num_8,1,0.8942201600002591,None,,,,,,,,,,,,,,CBAS0006,1,2025-02-25_10h42.09.930,ObjectScenePairTask_local_recog_final,2024.1.4,None,2025-02-25 10h42.20.438393 -0500,
recog/blocklist_recog_1.xlsx,instructions/Slide167.jpg,recog/imagelist_pair_recog3.xlsx,recog/images/PairN6_,1.8767978920194706,,New,0,1,1,0,0,1,1,3,0,3,3,15,421.54306564499984,,,,,,,,,,,,,,,,,,,,,,,,,,,,,,,,421.18761987799917,4,instructions/Slide167.jpg,recog/images/PairN6_4.jpeg,num_5,421.54306564499984,77.38493831199958,423.0660307809994,423.0660307809994,423.0660307809994,424.8005084139995,80.64227919699988,num_8,0,1.7271226160000879,None,,,,,,,,,,,,,,CBAS0006,1,2025-02-25_10h42.09.930,ObjectScenePairTask_local_recog_final,2024.1.4,None,2025-02-25 10h42.20.438393 -0500,
recog/blocklist_recog_1.xlsx,instructions/Slide167.jpg,recog/imagelist_pair_recog3.xlsx,recog/images/Pair32_,2.39928801742913,,Studied,0,1,1,0,0,1,1,3,0,4,4,0,424.82093905799957,,,,,,,,,,,,,,,,,,,,,,,,,,,,,,,,424.8013966669996,1,instructions/Slide167.jpg,recog/images/Pair32_1.jpeg,num_8,424.82093905799957,80.66282925699943,427.2147971099994,427.2147971099994,427.2147971099994,428.1327665739991,83.97453354299978,num_8,1,0.9063445110004977,None,,,,,,,,,,,,,,CBAS0006,1,2025-02-25_10h42.09.930,ObjectScenePairTask_local_recog_final,2024.1.4,None,2025-02-25 10h42.20.438393 -0500,
recog/blocklist_recog_1.xlsx,instructions/Slide167.jpg,recog/imagelist_pair_recog3.xlsx,recog/images/Pair38_,2.2707804130158555,,Studied,0,1,1,0,0,1,1,3,0,5,5,4,428.15209937099917,,,,,,,,,,,,,,,,,,,,,,,,,,,,,,,,428.1334591679997,1,instructions/Slide167.jpg,recog/images/Pair38_1.jpeg,num_8,428.15209937099917,83.99397159,430.4020994779994,430.4020994779994,430.4020994779994,432.1644406959995,88.00620894500025,num_8,1,1.7514356990004671,None,,,,,,,,,,,,,,CBAS0006,1,2025-02-25_10h42.09.930,ObjectScenePairTask_local_recog_final,2024.1.4,None,2025-02-25 10h42.20.438393 -0500,
recog/blocklist_recog_1.xlsx,instructions/Slide167.jpg,recog/imagelist_pair_recog3.xlsx,recog/images/Pair39_,1.6704609625395632,,Studied,0,1,1,0,0,1,1,3,0,6,6,5,432.4787172509996,,,,,,,,,,,,,,,,,,,,,,,,,,,,,,,,432.16511722999985,1,instructions/Slide167.jpg,recog/images/Pair39_1.jpeg,num_8,432.4787172509996,88.32060631500008,433.846409709,433.846409709,433.846409709,434.94772436399944,90.7894877689996,num_8,1,1.0986819720001222,None,,,,,,,,,,,,,,CBAS0006,1,2025-02-25_10h42.09.930,ObjectScenePairTask_local_recog_final,2024.1.4,None,2025-02-25 10h42.20.438393 -0500,
recog/blocklist_recog_1.xlsx,instructions/Slide167.jpg,recog/imagelist_pair_recog3.xlsx,recog/images/PairN5_,2.713285789384307,,New,0,1,1,0,0,1,1,3,0,7,7,14,435.2796375829994,,,,,,,,,,,,,,,,,,,,,,,,,,,,,,,,434.9483716089999,2,instructions/Slide167.jpg,recog/images/PairN5_2.jpeg,num_5,435.2796375829994,91.1214693209995,437.6617836939995,437.6617836939995,437.6617836939995,439.51064581799983,95.3524161639998,num_5,1,1.8434665590002624,None,,,,,,,,,,,,,,CBAS0006,1,2025-02-25_10h42.09.930,ObjectScenePairTask_local_recog_final,2024.1.4,None,2025-02-25 10h42.20.438393 -0500,
recog/blocklist_recog_1.xlsx,instructions/Slide167.jpg,recog/imagelist_pair_recog3.xlsx,recog/images/Pair35_,1.2885716402714387,,Studied,0,1,1,0,0,1,1,3,0,8,8,2,439.819673899,,,,,,,,,,,,,,,,,,,,,,,,,,,,,,,,439.51135687999977,1,instructions/Slide167.jpg,recog/images/Pair35_1.jpeg,num_8,439.819673899,95.66155676299968,440.811113277,440.811113277,440.811113277,441.9794877409995,97.82125417999941,num_8,1,1.1660742809999647,None,,,,,,,,,,,,,,CBAS0006,1,2025-02-25_10h42.09.930,ObjectScenePairTask_local_recog_final,2024.1.4,None,2025-02-25 10h42.20.438393 -0500,
recog/blocklist_recog_1.xlsx,instructions/Slide167.jpg,recog/imagelist_pair_recog3.xlsx,recog/images/PairN27_,2.4824508729116164,,New,0,1,1,0,0,1,1,3,0,9,9,16,441.9992378729994,,,,,,,,,,,,,,,,,,,,,,,,,,,,,,,,441.9800389339998,1,instructions/Slide167.jpg,recog/images/PairN27_1.jpeg,num_8,441.9992378729994,97.84112076899964,444.4764042029992,444.4764042029992,444.4764042029992,446.50847805399917,102.35024580200025,num_5,0,2.0207742729999154,None,,,,,,,,,,,,,,CBAS0006,1,2025-02-25_10h42.09.930,ObjectScenePairTask_local_recog_final,2024.1.4,None,2025-02-25 10h42.20.438393 -0500,
recog/blocklist_recog_1.xlsx,instructions/Slide167.jpg,recog/imagelist_pair_recog3.xlsx,recog/images/Pair43_,1.5053737937629732,,Studied,0,1,1,0,0,1,1,3,0,10,10,9,446.8925305009998,,,,,,,,,,,,,,,,,,,,,,,,,,,,,,,,446.50916596999923,3,instructions/Slide167.jpg,recog/images/Pair43_3.jpeg,num_5,446.8925305009998,102.73443035899982,448.0233373589999,448.0233373589999,448.0233373589999,449.14155017099984,104.98331782100013,num_8,0,1.105641332000232,None,,,,,,,,,,,,,,CBAS0006,1,2025-02-25_10h42.09.930,ObjectScenePairTask_local_recog_final,2024.1.4,None,2025-02-25 10h42.20.438393 -0500,
recog/blocklist_recog_1.xlsx,instructions/Slide167.jpg,recog/imagelist_pair_recog3.xlsx,recog/images/Pair41_,2.147079206764521,,Studied,0,1,1,0,0,1,1,3,0,11,11,7,449.1586121369992,,,,,,,,,,,,,,,,,,,,,,,,,,,,,,,,449.1422548949995,1,instructions/Slide167.jpg,recog/images/Pair41_1.jpeg,num_8,449.1586121369992,105.00049939200017,451.29137677199924,451.29137677199924,451.29137677199924,452.79062948999945,108.63239739399978,num_8,1,1.49387654200018,None,,,,,,,,,,,,,,CBAS0006,1,2025-02-25_10h42.09.930,ObjectScenePairTask_local_recog_final,2024.1.4,None,2025-02-25 10h42.20.438393 -0500,
recog/blocklist_recog_1.xlsx,instructions/Slide167.jpg,recog/imagelist_pair_recog3.xlsx,recog/images/Pair46_,2.7087223881290594,,Studied,0,1,1,0,0,1,1,3,0,12,12,12,452.8095985029995,,,,,,,,,,,,,,,,,,,,,,,,,,,,,,,,452.79140487399945,1,instructions/Slide167.jpg,recog/images/Pair46_1.jpeg,num_8,452.8095985029995,108.65148019099979,455.50688261899995,455.50688261899995,455.50688261899995,457.15551119499924,112.99727616000018,num_5,0,1.6383408060000875,None,,,,,,,,,,,,,,CBAS0006,1,2025-02-25_10h42.09.930,ObjectScenePairTask_local_recog_final,2024.1.4,None,2025-02-25 10h42.20.438393 -0500,
recog/blocklist_recog_1.xlsx,instructions/Slide167.jpg,recog/imagelist_pair_recog3.xlsx,recog/images/Pair42_,2.341032574829873,,Studied,0,1,1,0,0,1,1,3,0,13,13,8,457.1719282999993,,,,,,,,,,,,,,,,,,,,,,,,,,,,,,,,457.1560835169994,1,instructions/Slide167.jpg,recog/images/Pair42_1.jpeg,num_8,457.1719282999993,113.01381930499974,459.49435224699937,459.49435224699937,459.49435224699937,460.75602229299966,116.5977867319998,num_8,1,1.2508443080005236,None,,,,,,,,,,,,,,CBAS0006,1,2025-02-25_10h42.09.930,ObjectScenePairTask_local_recog_final,2024.1.4,None,2025-02-25 10h42.20.438393 -0500,
recog/blocklist_recog_1.xlsx,instructions/Slide167.jpg,recog/imagelist_pair_recog3.xlsx,recog/images/Pair48_,2.026659140282474,,Studied,0,1,1,0,0,1,1,3,0,14,14,13,460.7737442889993,,,,,,,,,,,,,,,,,,,,,,,,,,,,,,,,460.7567915079999,1,instructions/Slide167.jpg,recog/images/Pair48_1.jpeg,num_8,460.7737442889993,116.61558608699943,462.7860733949992,462.7860733949992,462.7860733949992,463.92386952799916,119.76563960200019,num_8,1,1.1273112740000215,None,,,,,,,,,,,,,,CBAS0006,1,2025-02-25_10h42.09.930,ObjectScenePairTask_local_recog_final,2024.1.4,None,2025-02-25 10h42.20.438393 -0500,
recog/blocklist_recog_1.xlsx,instructions/Slide167.jpg,recog/imagelist_pair_recog3.xlsx,recog/images/Pair45_,2.645828177578406,,Studied,0,1,1,0,0,1,1,3,0,15,15,11,463.94058029499956,,,,,,,,,,,,,,,,,,,,,,,,,,,,,,,,463.92462663399965,3,instructions/Slide167.jpg,recog/images/Pair45_3.jpeg,num_5,463.94058029499956,119.78247407500021,466.5686513419996,466.5686513419996,466.5686513419996,467.9376257219992,123.77938631300003,num_5,1,1.352446346000761,None,,,,,,,,,,,,,,CBAS0006,1,2025-02-25_10h42.09.930,ObjectScenePairTask_local_recog_final,2024.1.4,None,2025-02-25 10h42.20.438393 -0500,
recog/blocklist_recog_1.xlsx,instructions/Slide167.jpg,recog/imagelist_pair_recog3.xlsx,recog/images/Pair40_,1.9108784658024969,,Studied,0,1,1,0,0,1,1,3,0,16,16,6,467.95677195999997,,,,,,,,,,,,,,,,,,,,,,,,,,,,,,,,467.9380909719994,3,instructions/Slide167.jpg,recog/images/Pair40_3.jpeg,num_5,467.95677195999997,123.79866386999947,469.84050941499936,469.84050941499936,469.84050941499936,471.0133470889996,126.85511483800019,num_8,0,1.1606238490003307,None,,,,,,,,,,,,,,CBAS0006,1,2025-02-25_10h42.09.930,ObjectScenePairTask_local_recog_final,2024.1.4,None,2025-02-25 10h42.20.438393 -0500,
recog/blocklist_recog_1.xlsx,instructions/Slide167.jpg,recog/imagelist_pair_recog3.xlsx,,,,,0,1,1,0,0,1,1,3,,,,,,,,,,,,,,,,,,,,,,,,,,,,,,,,,,,,,,,instructions/Slide167.jpg,,,,,,,,,,,,,,471.075292431,126.91704822500014,471.07604881599946,,,,,,,,,,,CBAS0006,1,2025-02-25_10h42.09.930,ObjectScenePairTask_local_recog_final,2024.1.4,None,2025-02-25 10h42.20.438393 -0500,
recog/blocklist_recog_1.xlsx,instructions/Slide167.jpg,recog/imagelist_pair_recog2.xlsx,recog/images/Pair20_,1.5030993002190387,Studied,,0,1,1,0,0,2,2,2,0,0,0,3,476.0935885479994,,,,,,,,,,,,,,,,,,,,,,,,,,,471.07637454199994,471.101183625,472.07147621499917,476.06606295799975,131.90782492000017,476.07834332999937,1,instructions/Slide167.jpg,recog/images/Pair20_1.jpeg,num_8,476.0935885479994,131.93547599300018,477.584054465,477.584054465,477.584054465,479.95223980599985,135.7940107960003,num_8,1,2.3611229689995525,None,,,,,,,,,,,,,,CBAS0006,1,2025-02-25_10h42.09.930,ObjectScenePairTask_local_recog_final,2024.1.4,None,2025-02-25 10h42.20.438393 -0500,
recog/blocklist_recog_1.xlsx,instructions/Slide167.jpg,recog/imagelist_pair_recog2.xlsx,recog/images/Pair18_,2.5138620858988867,Studied,,0,1,1,0,0,2,2,2,0,1,1,1,479.9700221839994,,,,,,,,,,,,,,,,,,,,,,,,,,,,,,,,479.9531324799991,1,instructions/Slide167.jpg,recog/images/Pair18_1.jpeg,num_8,479.9700221839994,135.8119183789995,482.46609707399966,482.46609707399966,482.46609707399966,484.90082581499973,140.74259041200003,num_8,1,2.431104315000084,None,,,,,,,,,,,,,,CBAS0006,1,2025-02-25_10h42.09.930,ObjectScenePairTask_local_recog_final,2024.1.4,None,2025-02-25 10h42.20.438393 -0500,
recog/blocklist_recog_1.xlsx,instructions/Slide167.jpg,recog/imagelist_pair_recog2.xlsx,recog/images/Pair23_,1.619883444446871,Studied,,0,1,1,0,0,2,2,2,0,2,2,6,485.413132099,,,,,,,,,,,,,,,,,,,,,,,,,,,,,,,,484.9016666089992,3,instructions/Slide167.jpg,recog/images/Pair23_3.jpeg,num_5,485.413132099,141.25502531100028,486.53217310999935,486.53217310999935,486.53217310999935,487.7164068409993,143.55817706000016,num_8,0,1.1809367129999373,None,,,,,,,,,,,,,,CBAS0006,1,2025-02-25_10h42.09.930,ObjectScenePairTask_local_recog_final,2024.1.4,None,2025-02-25 10h42.20.438393 -0500,
recog/blocklist_recog_1.xlsx,instructions/Slide167.jpg,recog/imagelist_pair_recog2.xlsx,recog/images/Pair16_,1.4239792027758893,Studied,,0,1,1,0,0,2,2,2,0,3,3,0,488.04513913199935,,,,,,,,,,,,,,,,,,,,,,,,,,,,,,,,487.7173745649998,3,instructions/Slide167.jpg,recog/images/Pair16_3.jpeg,num_5,488.04513913199935,143.88703399799942,489.1481162349992,489.1481162349992,489.1481162349992,490.3964425919994,146.23821418199987,num_8,0,1.237039941999683,None,,,,,,,,,,,,,,CBAS0006,1,2025-02-25_10h42.09.930,ObjectScenePairTask_local_recog_final,2024.1.4,None,2025-02-25 10h42.20.438393 -0500,
recog/blocklist_recog_1.xlsx,instructions/Slide167.jpg,recog/imagelist_pair_recog2.xlsx,recog/images/PairN26_,1.195029852842738,New,,0,1,1,0,0,2,2,2,0,4,4,16,490.41534784399937,,,,,,,,,,,,,,,,,,,,,,,,,,,,,,,,490.39711120299944,4,instructions/Slide167.jpg,recog/images/PairN26_4.jpeg,num_5,490.41534784399937,146.25724888900004,491.59746176599947,491.59746176599947,491.59746176599947,492.9479988639996,148.7897686790002,num_5,1,1.339710338000259,None,,,,,,,,,,,,,,CBAS0006,1,2025-02-25_10h42.09.930,ObjectScenePairTask_local_recog_final,2024.1.4,None,2025-02-25 10h42.20.438393 -0500,
recog/blocklist_recog_1.xlsx,instructions/Slide167.jpg,recog/imagelist_pair_recog2.xlsx,recog/images/Pair25_,1.4106931781119352,Studied,,0,1,1,0,0,2,2,2,0,5,5,8,493.27298561099997,,,,,,,,,,,,,,,,,,,,,,,,,,,,,,,,492.94870048699977,4,instructions/Slide167.jpg,recog/images/Pair25_4.jpeg,num_5,493.27298561099997,149.11485081799947,494.35992690999956,494.35992690999956,494.35992690999956,496.3116291239994,152.15339786099958,num_5,1,1.945569507000073,None,,,,,,,,,,,,,,CBAS0006,1,2025-02-25_10h42.09.930,ObjectScenePairTask_local_recog_final,2024.1.4,None,2025-02-25 10h42.20.438393 -0500,
recog/blocklist_recog_1.xlsx,instructions/Slide167.jpg,recog/imagelist_pair_recog2.xlsx,recog/images/Pair27_,2.5530823394265343,Studied,,0,1,1,0,0,2,2,2,0,6,6,10,496.6707224879992,,,,,,,,,,,,,,,,,,,,,,,,,,,,,,,,496.3124372559996,2,instructions/Slide167.jpg,recog/images/Pair27_2.jpeg,num_5,496.6707224879992,152.5125603739998,498.87579970799925,498.87579970799925,498.87579970799925,500.32760635999966,156.16937774399958,num_8,0,1.4457738480004991,None,,,,,,,,,,,,,,CBAS0006,1,2025-02-25_10h42.09.930,ObjectScenePairTask_local_recog_final,2024.1.4,None,2025-02-25 10h42.20.438393 -0500,
recog/blocklist_recog_1.xlsx,instructions/Slide167.jpg,recog/imagelist_pair_recog2.xlsx,recog/images/PairN4_,1.0515242217513434,New,,0,1,1,0,0,2,2,2,0,7,7,15,500.34597200699955,,,,,,,,,,,,,,,,,,,,,,,,,,,,,,,,500.3284775989996,4,instructions/Slide167.jpg,recog/images/PairN4_4.jpeg,num_5,500.34597200699955,156.18789601200024,501.39434084499953,501.39434084499953,501.39434084499953,502.82860209999944,158.67036721899967,num_5,1,1.430680274000224,None,,,,,,,,,,,,,,CBAS0006,1,2025-02-25_10h42.09.930,ObjectScenePairTask_local_recog_final,2024.1.4,None,2025-02-25 10h42.20.438393 -0500,
recog/blocklist_recog_1.xlsx,instructions/Slide167.jpg,recog/imagelist_pair_recog2.xlsx,recog/images/Pair31_,1.9160966889225644,Studied,,0,1,1,0,0,2,2,2,0,8,8,13,502.8502754639994,,,,,,,,,,,,,,,,,,,,,,,,,,,,,,,,502.8293410459992,1,instructions/Slide167.jpg,recog/images/Pair31_1.jpeg,num_8,502.8502754639994,158.6921616159998,504.7603489479998,504.7603489479998,504.7603489479998,506.2281851359994,162.06995117899987,num_8,1,1.4648208259995954,None,,,,,,,,,,,,,,CBAS0006,1,2025-02-25_10h42.09.930,ObjectScenePairTask_local_recog_final,2024.1.4,None,2025-02-25 10h42.20.438393 -0500,
recog/blocklist_recog_1.xlsx,instructions/Slide167.jpg,recog/imagelist_pair_recog2.xlsx,recog/images/Pair24_,1.3537543145822712,Studied,,0,1,1,0,0,2,2,2,0,9,9,7,506.2473754749999,,,,,,,,,,,,,,,,,,,,,,,,,,,,,,,,506.22901297299995,1,instructions/Slide167.jpg,recog/images/Pair24_1.jpeg,num_8,506.2473754749999,162.0892581729995,507.5930714389997,507.5930714389997,507.5930714389997,508.89162042099997,164.73338403599973,num_5,0,1.2960532560000502,None,,,,,,,,,,,,,,CBAS0006,1,2025-02-25_10h42.09.930,ObjectScenePairTask_local_recog_final,2024.1.4,None,2025-02-25 10h42.20.438393 -0500,
recog/blocklist_recog_1.xlsx,instructions/Slide167.jpg,recog/imagelist_pair_recog2.xlsx,recog/images/PairN3_,2.632790465105473,New,,0,1,1,0,0,2,2,2,0,10,10,14,509.5214059729997,,,,,,,,,,,,,,,,,,,,,,,,,,,,,,,,508.8924070509993,4,instructions/Slide167.jpg,recog/images/PairN3_4.jpeg,num_5,509.5214059729997,165.36340568299966,511.5251736419996,511.5251736419996,511.5251736419996,512.9134388969997,168.75520790500013,num_5,1,1.3723254819997237,None,,,,,,,,,,,,,,CBAS0006,1,2025-02-25_10h42.09.930,ObjectScenePairTask_local_recog_final,2024.1.4,None,2025-02-25 10h42.20.438393 -0500,
recog/blocklist_recog_1.xlsx,instructions/Slide167.jpg,recog/imagelist_pair_recog2.xlsx,recog/images/Pair29_,2.968125437629663,Studied,,0,1,1,0,0,2,2,2,0,11,11,12,512.9280610869992,,,,,,,,,,,,,,,,,,,,,,,,,,,,,,,,512.9141988279998,2,instructions/Slide167.jpg,recog/images/Pair29_2.jpeg,num_5,512.9280610869992,168.7699595189997,515.8903502929998,515.8903502929998,515.8903502929998,517.4924903319998,173.33426236000014,num_5,1,1.5910978819993034,None,,,,,,,,,,,,,,CBAS0006,1,2025-02-25_10h42.09.930,ObjectScenePairTask_local_recog_final,2024.1.4,None,2025-02-25 10h42.20.438393 -0500,
recog/blocklist_recog_1.xlsx,instructions/Slide167.jpg,recog/imagelist_pair_recog2.xlsx,recog/images/Pair26_,2.974288636049695,Studied,,0,1,1,0,0,2,2,2,0,12,12,9,517.8682483449993,,,,,,,,,,,,,,,,,,,,,,,,,,,,,,,,517.4932635419991,3,instructions/Slide167.jpg,recog/images/Pair26_3.jpeg,num_5,517.8682483449993,173.71008161600002,520.4726264589999,520.4726264589999,520.4726264589999,522.7568201329996,178.59859002699977,num_8,0,2.280502009999509,None,,,,,,,,,,,,,,CBAS0006,1,2025-02-25_10h42.09.930,ObjectScenePairTask_local_recog_final,2024.1.4,None,2025-02-25 10h42.20.438393 -0500,
recog/blocklist_recog_1.xlsx,instructions/Slide167.jpg,recog/imagelist_pair_recog2.xlsx,recog/images/Pair22_,1.6360868782312534,Studied,,0,1,1,0,0,2,2,2,0,13,13,5,522.7771629699992,,,,,,,,,,,,,,,,,,,,,,,,,,,,,,,,522.7577801099997,1,instructions/Slide167.jpg,recog/images/Pair22_1.jpeg,num_8,522.7771629699992,178.61909952599945,524.4028978179995,524.4028978179995,524.4028978179995,525.8383593679991,181.68012821699995,num_8,1,1.4301946010000393,None,,,,,,,,,,,,,,CBAS0006,1,2025-02-25_10h42.09.930,ObjectScenePairTask_local_recog_final,2024.1.4,None,2025-02-25 10h42.20.438393 -0500,
recog/blocklist_recog_1.xlsx,instructions/Slide167.jpg,recog/imagelist_pair_recog2.xlsx,recog/images/Pair19_,1.1956574246688279,Studied,,0,1,1,0,0,2,2,2,0,14,14,2,526.2011595049999,,,,,,,,,,,,,,,,,,,,,,,,,,,,,,,,525.8391456829995,1,instructions/Slide167.jpg,recog/images/Pair19_1.jpeg,num_8,526.2011595049999,182.0430706999996,527.0245824119993,527.0245824119993,527.0245824119993,528.0769590359996,183.91872805499952,num_8,1,1.04863957499947,None,,,,,,,,,,,,,,CBAS0006,1,2025-02-25_10h42.09.930,ObjectScenePairTask_local_recog_final,2024.1.4,None,2025-02-25 10h42.20.438393 -0500,
recog/blocklist_recog_1.xlsx,instructions/Slide167.jpg,recog/imagelist_pair_recog2.xlsx,recog/images/Pair28_,1.5037607566965843,Studied,,0,1,1,0,0,2,2,2,0,15,15,11,528.4142204079999,,,,,,,,,,,,,,,,,,,,,,,,,,,,,,,,528.0779260759991,2,instructions/Slide167.jpg,recog/images/Pair28_2.jpeg,num_5,528.4142204079999,184.25608947599994,529.5738992569995,529.5738992569995,529.5738992569995,531.0270936869993,186.8688922270003,num_8,0,1.4432388520008317,None,,,,,,,,,,,,,,CBAS0006,1,2025-02-25_10h42.09.930,ObjectScenePairTask_local_recog_final,2024.1.4,None,2025-02-25 10h42.20.438393 -0500,
recog/blocklist_recog_1.xlsx,instructions/Slide167.jpg,recog/imagelist_pair_recog2.xlsx,recog/images/Pair21_,1.3097336983074082,Studied,,0,1,1,0,0,2,2,2,0,16,16,4,531.3612948599994,,,,,,,,,,,,,,,,,,,,,,,,,,,,,,,,531.0278371789991,4,instructions/Slide167.jpg,recog/images/Pair21_4.jpeg,num_5,531.3612948599994,187.2031974370002,532.3323932399999,532.3323932399999,532.3323932399999,533.7342949119993,189.57606261299952,num_5,1,1.396936514999652,None,,,,,,,,,,,,,,CBAS0006,1,2025-02-25_10h42.09.930,ObjectScenePairTask_local_recog_final,2024.1.4,None,2025-02-25 10h42.20.438393 -0500,
recog/blocklist_recog_1.xlsx,instructions/Slide167.jpg,recog/imagelist_pair_recog2.xlsx,,,,,0,1,1,0,0,2,2,2,,,,,,,,,,,,,,,,,,,,,,,,,,,,,,,,,,,,,,,instructions/Slide167.jpg,,,,,,,,,,,,,,533.7974250459993,189.63918117100002,533.7981359769992,,,,,,,,,,,CBAS0006,1,2025-02-25_10h42.09.930,ObjectScenePairTask_local_recog_final,2024.1.4,None,2025-02-25 10h42.20.438393 -0500,
recog/blocklist_recog_1.xlsx,instructions/Slide167.jpg,recog/imagelist_pair_recog1.xlsx,recog/images/Pair3_,2.8121874638028466,Studied,,0,1,1,0,0,3,3,1,0,0,0,2,539.6919964149993,,,,,,,,,,,,,,,,,,,,,,,,,,,533.7983207169991,533.8228683429998,534.7885770079993,539.6659369499994,195.5076991850001,539.6761681229991,4,instructions/Slide167.jpg,recog/images/Pair3_4.jpeg,num_5,539.6919964149993,195.53390058500008,542.4705104819996,542.4705104819996,542.4705104819996,544.3483295929991,200.19009242099946,num_5,1,1.8667008649999843,None,,,,,,,,,,,,,,CBAS0006,1,2025-02-25_10h42.09.930,ObjectScenePairTask_local_recog_final,2024.1.4,None,2025-02-25 10h42.20.438393 -0500,
recog/blocklist_recog_1.xlsx,instructions/Slide167.jpg,recog/imagelist_pair_recog1.xlsx,recog/images/Pair6_,2.181785323824088,Studied,,0,1,1,0,0,3,3,1,0,1,1,5,544.3634226479999,,,,,,,,,,,,,,,,,,,,,,,,,,,,,,,,544.3492798019997,1,instructions/Slide167.jpg,recog/images/Pair6_1.jpeg,num_8,544.3634226479999,200.2053245750003,546.5323449259995,546.5323449259995,546.5323449259995,547.6514242549993,203.4931900270003,num_8,1,1.1091244059998644,None,,,,,,,,,,,,,,CBAS0006,1,2025-02-25_10h42.09.930,ObjectScenePairTask_local_recog_final,2024.1.4,None,2025-02-25 10h42.20.438393 -0500,
recog/blocklist_recog_1.xlsx,instructions/Slide167.jpg,recog/imagelist_pair_recog1.xlsx,recog/images/PairN2_,2.7558521640683473,New,,0,1,1,0,0,3,3,1,0,2,2,15,547.6704351599992,,,,,,,,,,,,,,,,,,,,,,,,,,,,,,,,547.6522116799997,4,instructions/Slide167.jpg,recog/images/PairN2_4.jpeg,num_5,547.6704351599992,203.5123171539999,550.4145451079994,550.4145451079994,550.4145451079994,551.8469377769998,207.68870580099974,num_5,1,1.418602990999716,None,,,,,,,,,,,,,,CBAS0006,1,2025-02-25_10h42.09.930,ObjectScenePairTask_local_recog_final,2024.1.4,None,2025-02-25 10h42.20.438393 -0500,
recog/blocklist_recog_1.xlsx,instructions/Slide167.jpg,recog/imagelist_pair_recog1.xlsx,recog/images/PairN1_,2.7221744070077585,New,,0,1,1,0,0,3,3,1,0,3,3,14,552.1994074259992,,,,,,,,,,,,,,,,,,,,,,,,,,,,,,,,551.8476389519992,4,instructions/Slide167.jpg,recog/images/PairN1_4.jpeg,num_5,552.1994074259992,208.04127232500014,554.5803650509997,554.5803650509997,554.5803650509997,555.7876947029999,211.62946108799952,num_8,0,1.2048171229998843,None,,,,,,,,,,,,,,CBAS0006,1,2025-02-25_10h42.09.930,ObjectScenePairTask_local_recog_final,2024.1.4,None,2025-02-25 10h42.20.438393 -0500,
recog/blocklist_recog_1.xlsx,instructions/Slide167.jpg,recog/imagelist_pair_recog1.xlsx,recog/images/Pair2_,2.354033119476899,Studied,,0,1,1,0,0,3,3,1,0,4,4,1,555.8088727219993,,,,,,,,,,,,,,,,,,,,,,,,,,,,,,,,555.7883956129999,1,instructions/Slide167.jpg,recog/images/Pair2_1.jpeg,num_8,555.8088727219993,211.65075384800002,558.1455065049995,558.1455065049995,558.1455065049995,559.3138628029992,215.15562355699967,num_8,1,1.1516656059993693,None,,,,,,,,,,,,,,CBAS0006,1,2025-02-25_10h42.09.930,ObjectScenePairTask_local_recog_final,2024.1.4,None,2025-02-25 10h42.20.438393 -0500,
recog/blocklist_recog_1.xlsx,instructions/Slide167.jpg,recog/imagelist_pair_recog1.xlsx,recog/images/Pair4_,1.531616309422662,Studied,,0,1,1,0,0,3,3,1,0,5,5,3,559.33313628,,,,,,,,,,,,,,,,,,,,,,,,,,,,,,,,559.3142519249996,4,instructions/Slide167.jpg,recog/images/Pair4_4.jpeg,num_5,559.33313628,215.1750214169997,560.8448820469994,560.8448820469994,560.8448820469994,562.0629489829998,217.90473333999944,num_8,0,1.2123183109997626,None,,,,,,,,,,,,,,CBAS0006,1,2025-02-25_10h42.09.930,ObjectScenePairTask_local_recog_final,2024.1.4,None,2025-02-25 10h42.20.438393 -0500,
recog/blocklist_recog_1.xlsx,instructions/Slide167.jpg,recog/imagelist_pair_recog1.xlsx,recog/images/Pair14_,2.1389613430550467,Studied,,0,1,1,0,0,3,3,1,0,6,6,13,562.0851701329993,,,,,,,,,,,,,,,,,,,,,,,,,,,,,,,,562.0646806899995,3,instructions/Slide167.jpg,recog/images/Pair14_3.jpeg,num_5,562.0851701329993,217.92700583999977,564.2106371289992,564.2106371289992,564.2106371289992,566.1314610789996,221.97322822800015,num_5,1,1.9108734380006354,None,,,,,,,,,,,,,,CBAS0006,1,2025-02-25_10h42.09.930,ObjectScenePairTask_local_recog_final,2024.1.4,None,2025-02-25 10h42.20.438393 -0500,
recog/blocklist_recog_1.xlsx,instructions/Slide167.jpg,recog/imagelist_pair_recog1.xlsx,recog/images/Pair10_,2.3819873363842916,Studied,,0,1,1,0,0,3,3,1,0,7,7,9,566.1490400519997,,,,,,,,,,,,,,,,,,,,,,,,,,,,,,,,566.1321864839992,1,instructions/Slide167.jpg,recog/images/Pair10_1.jpeg,num_8,566.1490400519997,221.99091765899993,568.5264078069995,568.5264078069995,568.5264078069995,569.7961916199993,225.63795483800004,num_8,1,1.259090025999285,None,,,,,,,,,,,,,,CBAS0006,1,2025-02-25_10h42.09.930,ObjectScenePairTask_local_recog_final,2024.1.4,None,2025-02-25 10h42.20.438393 -0500,
recog/blocklist_recog_1.xlsx,instructions/Slide167.jpg,recog/imagelist_pair_recog1.xlsx,recog/images/PairN25_,1.4484605644075328,New,,0,1,1,0,0,3,3,1,0,8,8,16,570.1427040059998,,,,,,,,,,,,,,,,,,,,,,,,,,,,,,,,569.7970701649992,1,instructions/Slide167.jpg,recog/images/PairN25_1.jpeg,num_5,570.1427040059998,225.98457846400015,571.2587980239996,571.2587980239996,571.2587980239996,572.7268569899998,228.56862659299986,num_5,1,1.4624159820004934,None,,,,,,,,,,,,,,CBAS0006,1,2025-02-25_10h42.09.930,ObjectScenePairTask_local_recog_final,2024.1.4,None,2025-02-25 10h42.20.438393 -0500,
recog/blocklist_recog_1.xlsx,instructions/Slide167.jpg,recog/imagelist_pair_recog1.xlsx,recog/images/Pair13_,2.1214249673909924,Studied,,0,1,1,0,0,3,3,1,0,9,9,12,572.7466671989996,,,,,,,,,,,,,,,,,,,,,,,,,,,,,,,,572.7276010269998,1,instructions/Slide167.jpg,recog/images/Pair13_1.jpeg,num_8,572.7466671989996,228.58855640000002,574.8579513049999,574.8579513049999,574.8579513049999,576.2583600499993,232.10011919999943,num_8,1,1.3832475469998826,None,,,,,,,,,,,,,,CBAS0006,1,2025-02-25_10h42.09.930,ObjectScenePairTask_local_recog_final,2024.1.4,None,2025-02-25 10h42.20.438393 -0500,
recog/blocklist_recog_1.xlsx,instructions/Slide167.jpg,recog/imagelist_pair_recog1.xlsx,recog/images/Pair12_,1.8906099369493727,Studied,,0,1,1,0,0,3,3,1,0,10,10,11,576.2746463989997,,,,,,,,,,,,,,,,,,,,,,,,,,,,,,,,576.2587529959992,1,instructions/Slide167.jpg,recog/images/Pair12_1.jpeg,num_8,576.2746463989997,232.11653184500028,578.1574092729998,578.1574092729998,578.1574092729998,579.4065477899994,235.2483202020003,num_8,1,1.2436648659995626,None,,,,,,,,,,,,,,CBAS0006,1,2025-02-25_10h42.09.930,ObjectScenePairTask_local_recog_final,2024.1.4,None,2025-02-25 10h42.20.438393 -0500,
recog/blocklist_recog_1.xlsx,instructions/Slide167.jpg,recog/imagelist_pair_recog1.xlsx,recog/images/Pair7_,1.8383453689388902,Studied,,0,1,1,0,0,3,3,1,0,11,11,6,579.4253266059995,,,,,,,,,,,,,,,,,,,,,,,,,,,,,,,,579.4073652379993,1,instructions/Slide167.jpg,recog/images/Pair7_1.jpeg,num_8,579.4253266059995,235.26720242600004,581.2562542399992,581.2562542399992,581.2562542399992,583.4053415279996,239.24711038399982,num_8,1,2.1368563540008836,None,,,,,,,,,,,,,,CBAS0006,1,2025-02-25_10h42.09.930,ObjectScenePairTask_local_recog_final,2024.1.4,None,2025-02-25 10h42.20.438393 -0500,
recog/blocklist_recog_1.xlsx,instructions/Slide167.jpg,recog/imagelist_pair_recog1.xlsx,recog/images/Pair8_,2.333499939504075,Studied,,0,1,1,0,0,3,3,1,0,12,12,7,583.4223737129996,,,,,,,,,,,,,,,,,,,,,,,,,,,,,,,,583.4061969279992,4,instructions/Slide167.jpg,recog/images/Pair8_4.jpeg,num_5,583.4223737129996,239.26421877200028,585.7547165049991,585.7547165049991,585.7547165049991,587.5897316119999,243.43150059599975,num_8,0,1.8304232030004641,None,,,,,,,,,,,,,,CBAS0006,1,2025-02-25_10h42.09.930,ObjectScenePairTask_local_recog_final,2024.1.4,None,2025-02-25 10h42.20.438393 -0500,
recog/blocklist_recog_1.xlsx,instructions/Slide167.jpg,recog/imagelist_pair_recog1.xlsx,recog/images/Pair11_,1.9244055548498116,Studied,,0,1,1,0,0,3,3,1,0,13,13,10,588.0410589779995,,,,,,,,,,,,,,,,,,,,,,,,,,,,,,,,587.5905824989995,3,instructions/Slide167.jpg,recog/images/Pair11_3.jpeg,num_5,588.0410589779995,243.8829702339999,589.5175912169998,589.5175912169998,589.5175912169998,590.7399582599992,246.58173306800018,num_8,0,1.2115999560001,None,,,,,,,,,,,,,,CBAS0006,1,2025-02-25_10h42.09.930,ObjectScenePairTask_local_recog_final,2024.1.4,None,2025-02-25 10h42.20.438393 -0500,
recog/blocklist_recog_1.xlsx,instructions/Slide167.jpg,recog/imagelist_pair_recog1.xlsx,recog/images/Pair1_,1.107898402381347,Studied,,0,1,1,0,0,3,3,1,0,14,14,0,590.7582859959994,,,,,,,,,,,,,,,,,,,,,,,,,,,,,,,,590.7408257369998,3,instructions/Slide167.jpg,recog/images/Pair1_3.jpeg,num_5,590.7582859959994,246.6001830340001,591.8511315299993,591.8511315299993,591.8511315299993,593.8372253429998,249.67899897499956,num_8,0,1.982034518000546,None,,,,,,,,,,,,,,CBAS0006,1,2025-02-25_10h42.09.930,ObjectScenePairTask_local_recog_final,2024.1.4,None,2025-02-25 10h42.20.438393 -0500,
recog/blocklist_recog_1.xlsx,instructions/Slide167.jpg,recog/imagelist_pair_recog1.xlsx,recog/images/Pair9_,1.5316420763962695,Studied,,0,1,1,0,0,3,3,1,0,15,15,8,593.8570861409999,,,,,,,,,,,,,,,,,,,,,,,,,,,,,,,,593.8380044959995,4,instructions/Slide167.jpg,recog/images/Pair9_4.jpeg,num_5,593.8570861409999,249.69898252199982,595.3658833009995,595.3658833009995,595.3658833009995,596.9721461709996,252.81391366800017,num_5,1,1.59562741299942,None,,,,,,,,,,,,,,CBAS0006,1,2025-02-25_10h42.09.930,ObjectScenePairTask_local_recog_final,2024.1.4,None,2025-02-25 10h42.20.438393 -0500,
recog/blocklist_recog_1.xlsx,instructions/Slide167.jpg,recog/imagelist_pair_recog1.xlsx,recog/images/Pair5_,1.610236429370304,Studied,,0,1,1,0,0,3,3,1,0,16,16,4,596.9894994999995,,,,,,,,,,,,,,,,,,,,,,,,,,,,,,,,596.9730318819993,3,instructions/Slide167.jpg,recog/images/Pair5_3.jpeg,num_5,596.9894994999995,252.83139972400022,598.5730569419993,598.5730569419993,598.5730569419993,600.27525126,256.1170214169997,num_5,1,1.6921039910002946,None,,,,,,,,,,,,,,CBAS0006,1,2025-02-25_10h42.09.930,ObjectScenePairTask_local_recog_final,2024.1.4,None,2025-02-25 10h42.20.438393 -0500,
recog/blocklist_recog_1.xlsx,instructions/Slide167.jpg,recog/imagelist_pair_recog1.xlsx,,,,,0,1,1,0,0,3,3,1,,,,,,,,,,,,,,,,,,,,,,,,,,,,,,,,,,,,,,,instructions/Slide167.jpg,,,,,,,,,,,,,,600.3403828399996,256.1821384949999,600.340900704,,,,,,,,,,,CBAS0006,1,2025-02-25_10h42.09.930,ObjectScenePairTask_local_recog_final,2024.1.4,None,2025-02-25 10h42.20.438393 -0500,
recog/blocklist_recog_1.xlsx,,,,,,,0,1,1,0,,,,,,,,,,,,,,,,,,,,,,,,,,,,,,,,,,,,,,,,,,,,,,,,,,,,,,,,,,,,600.401782551,600.4092860409992,602.335334636,646.9198518919993,space,44.569378866999614,None,,,,CBAS0006,1,2025-02-25_10h42.09.930,ObjectScenePairTask_local_recog_final,2024.1.4,None,2025-02-25 10h42.20.438393 -0500,
recog/blocklist_recog_3.xlsx,instructions/Slide167.jpg,recog/imagelist_pair_recog8.xlsx,recog/images/PairN15_,1.332074691746349,New,,0,2,2,2,0,0,0,2,0,0,0,14,664.3739049169999,,,,,,,,,,,,,,,,,,,,646.9202218429991,646.9266348649999,647.4210285069994,658.0932552069999,num_divide,10.668187981999836,None,658.1019694859997,658.125856099,659.1011546869995,664.3507168319993,6.257219154000268,664.3597538569993,3,instructions/Slide167.jpg,recog/images/PairN15_3.jpeg,num_5,664.3739049169999,6.280480186999739,665.680845674,665.680845674,665.680845674,667.0560251089992,8.962534205999873,num_5,1,1.368324527000368,None,,,,,,,,,,,,,,CBAS0006,1,2025-02-25_10h42.09.930,ObjectScenePairTask_local_recog_final,2024.1.4,None,2025-02-25 10h42.20.438393 -0500,
recog/blocklist_recog_3.xlsx,instructions/Slide167.jpg,recog/imagelist_pair_recog8.xlsx,recog/images/Pair126_,2.954317791154342,Studied,,0,2,2,2,0,0,0,2,0,1,1,11,667.0763275449999,,,,,,,,,,,,,,,,,,,,,,,,,,,,,,,,667.0570193679996,1,instructions/Slide167.jpg,recog/images/Pair126_1.jpeg,num_8,667.0763275449999,8.982969814999706,670.0022150589994,670.0022150589994,670.0022150589994,672.0173195699999,13.923829321000085,num_5,0,2.007095305999428,None,,,,,,,,,,,,,,CBAS0006,1,2025-02-25_10h42.09.930,ObjectScenePairTask_local_recog_final,2024.1.4,None,2025-02-25 10h42.20.438393 -0500,
recog/blocklist_recog_3.xlsx,instructions/Slide167.jpg,recog/imagelist_pair_recog8.xlsx,recog/images/Pair117_,2.1706947337812474,Studied,,0,2,2,2,0,0,0,2,0,2,2,3,672.4625640699996,,,,,,,,,,,,,,,,,,,,,,,,,,,,,,,,672.0179522819999,1,instructions/Slide167.jpg,recog/images/Pair117_1.jpeg,num_8,672.4625640699996,14.369179637999878,674.1976308589992,674.1976308589992,674.1976308589992,675.6137098399995,17.52021914800025,num_5,0,1.4035487239998474,None,,,,,,,,,,,,,,CBAS0006,1,2025-02-25_10h42.09.930,ObjectScenePairTask_local_recog_final,2024.1.4,None,2025-02-25 10h42.20.438393 -0500,
recog/blocklist_recog_3.xlsx,instructions/Slide167.jpg,recog/imagelist_pair_recog8.xlsx,recog/images/Pair125_,1.15964282749652,Studied,,0,2,2,2,0,0,0,2,0,3,3,10,675.6311393419992,,,,,,,,,,,,,,,,,,,,,,,,,,,,,,,,675.6143832179996,4,instructions/Slide167.jpg,recog/images/Pair125_4.jpeg,num_5,675.6311393419992,17.537765091999972,676.7805503959999,676.7805503959999,676.7805503959999,678.6624834939994,20.568992600000456,num_5,1,1.8686293120008486,None,,,,,,,,,,,,,,CBAS0006,1,2025-02-25_10h42.09.930,ObjectScenePairTask_local_recog_final,2024.1.4,None,2025-02-25 10h42.20.438393 -0500,
recog/blocklist_recog_3.xlsx,instructions/Slide167.jpg,recog/imagelist_pair_recog8.xlsx,recog/images/Pair114_,1.1122501303647885,Studied,,0,2,2,2,0,0,0,2,0,4,4,1,678.6806455759997,,,,,,,,,,,,,,,,,,,,,,,,,,,,,,,,678.6631640149999,4,instructions/Slide167.jpg,recog/images/Pair114_4.jpeg,num_5,678.6806455759997,20.587275191000117,679.7659572919993,679.7659572919993,679.7659572919993,681.0652293609992,22.971741813000335,num_8,0,1.2912615949999235,None,,,,,,,,,,,,,,CBAS0006,1,2025-02-25_10h42.09.930,ObjectScenePairTask_local_recog_final,2024.1.4,None,2025-02-25 10h42.20.438393 -0500,
recog/blocklist_recog_3.xlsx,instructions/Slide167.jpg,recog/imagelist_pair_recog8.xlsx,recog/images/Pair118_,1.719221997400091,Studied,,0,2,2,2,0,0,0,2,0,5,5,4,681.3684500449999,,,,,,,,,,,,,,,,,,,,,,,,,,,,,,,,681.0660502829996,1,instructions/Slide167.jpg,recog/images/Pair118_1.jpeg,num_8,681.3684500449999,23.27506044599977,682.7955595659996,682.7955595659996,682.7955595659996,684.3965208719992,26.30302838999978,num_8,1,1.5896364410000388,None,,,,,,,,,,,,,,CBAS0006,1,2025-02-25_10h42.09.930,ObjectScenePairTask_local_recog_final,2024.1.4,None,2025-02-25 10h42.20.438393 -0500,
recog/blocklist_recog_3.xlsx,instructions/Slide167.jpg,recog/imagelist_pair_recog8.xlsx,recog/images/Pair120_,1.1818277964471298,Studied,,0,2,2,2,0,0,0,2,0,6,6,6,684.7089329969995,,,,,,,,,,,,,,,,,,,,,,,,,,,,,,,,684.3972143539995,2,instructions/Slide167.jpg,recog/images/Pair120_2.jpeg,num_5,684.7089329969995,26.616086873000313,685.5748969699998,685.5748969699998,685.5748969699998,687.2276354979995,29.134137983999608,num_8,0,1.6422741809992658,None,,,,,,,,,,,,,,CBAS0006,1,2025-02-25_10h42.09.930,ObjectScenePairTask_local_recog_final,2024.1.4,None,2025-02-25 10h42.20.438393 -0500,
recog/blocklist_recog_3.xlsx,instructions/Slide167.jpg,recog/imagelist_pair_recog8.xlsx,recog/images/Pair121_,2.6585686402195137,Studied,,0,2,2,2,0,0,0,2,0,7,7,7,687.5453601269992,,,,,,,,,,,,,,,,,,,,,,,,,,,,,,,,687.228433409,4,instructions/Slide167.jpg,recog/images/Pair121_4.jpeg,num_5,687.5453601269992,29.451980075000392,689.8929306779992,689.8929306779992,689.8929306779992,691.2608170029998,33.16733306799961,num_8,0,1.356213363000279,None,,,,,,,,,,,,,,CBAS0006,1,2025-02-25_10h42.09.930,ObjectScenePairTask_local_recog_final,2024.1.4,None,2025-02-25 10h42.20.438393 -0500,
recog/blocklist_recog_3.xlsx,instructions/Slide167.jpg,recog/imagelist_pair_recog8.xlsx,recog/images/Pair116_,2.313068775303492,Studied,,0,2,2,2,0,0,0,2,0,8,8,2,691.2765209649997,,,,,,,,,,,,,,,,,,,,,,,,,,,,,,,,691.2615484929993,3,instructions/Slide167.jpg,recog/images/Pair116_3.jpeg,num_5,691.2765209649997,33.18318319399987,693.5756142189994,693.5756142189994,693.5756142189994,695.2438903659995,37.15039538600013,num_8,0,1.6655515570000716,None,,,,,,,,,,,,,,CBAS0006,1,2025-02-25_10h42.09.930,ObjectScenePairTask_local_recog_final,2024.1.4,None,2025-02-25 10h42.20.438393 -0500,
recog/blocklist_recog_3.xlsx,instructions/Slide167.jpg,recog/imagelist_pair_recog8.xlsx,recog/images/PairN32_,1.6516694245665193,New,,0,2,2,2,0,0,0,2,0,9,9,16,695.2646244389998,,,,,,,,,,,,,,,,,,,,,,,,,,,,,,,,695.2447489339993,1,instructions/Slide167.jpg,recog/images/PairN32_1.jpeg,num_5,695.2646244389998,37.171207002999836,696.9081410269991,696.9081410269991,696.9081410269991,698.2477178269992,40.154227046000415,num_5,1,1.3329538250000041,None,,,,,,,,,,,,,,CBAS0006,1,2025-02-25_10h42.09.930,ObjectScenePairTask_local_recog_final,2024.1.4,None,2025-02-25 10h42.20.438393 -0500,
recog/blocklist_recog_3.xlsx,instructions/Slide167.jpg,recog/imagelist_pair_recog8.xlsx,recog/images/Pair122_,2.7201514662654667,Studied,,0,2,2,2,0,0,0,2,0,10,10,8,698.6448864169997,,,,,,,,,,,,,,,,,,,,,,,,,,,,,,,,698.2484724869992,4,instructions/Slide167.jpg,recog/images/Pair122_4.jpeg,num_5,698.6448864169997,40.551500374999705,700.960887065,700.960887065,700.960887065,702.3588047019994,44.265313908999815,num_8,0,1.3923250019997795,None,,,,,,,,,,,,,,CBAS0006,1,2025-02-25_10h42.09.930,ObjectScenePairTask_local_recog_final,2024.1.4,None,2025-02-25 10h42.20.438393 -0500,
recog/blocklist_recog_3.xlsx,instructions/Slide167.jpg,recog/imagelist_pair_recog8.xlsx,recog/images/Pair113_,2.455443870191265,Studied,,0,2,2,2,0,0,0,2,0,11,11,0,702.3770579269994,,,,,,,,,,,,,,,,,,,,,,,,,,,,,,,,702.3595342479994,4,instructions/Slide167.jpg,recog/images/Pair113_4.jpeg,num_5,702.3770579269994,44.28368440600025,704.8205924609993,704.8205924609993,704.8205924609993,706.0221077849992,47.928616416000295,num_8,0,1.1965530089992171,None,,,,,,,,,,,,,,CBAS0006,1,2025-02-25_10h42.09.930,ObjectScenePairTask_local_recog_final,2024.1.4,None,2025-02-25 10h42.20.438393 -0500,
recog/blocklist_recog_3.xlsx,instructions/Slide167.jpg,recog/imagelist_pair_recog8.xlsx,recog/images/Pair123_,1.0190348076877775,Studied,,0,2,2,2,0,0,0,2,0,12,12,9,706.0416589099996,,,,,,,,,,,,,,,,,,,,,,,,,,,,,,,,706.0229122649998,4,instructions/Slide167.jpg,recog/images/Pair123_4.jpeg,num_5,706.0416589099996,47.948276979000184,707.0554417639996,707.0554417639996,707.0554417639996,708.1249254239992,50.031433768999705,num_8,0,1.057969329000116,None,,,,,,,,,,,,,,CBAS0006,1,2025-02-25_10h42.09.930,ObjectScenePairTask_local_recog_final,2024.1.4,None,2025-02-25 10h42.20.438393 -0500,
recog/blocklist_recog_3.xlsx,instructions/Slide167.jpg,recog/imagelist_pair_recog8.xlsx,recog/images/Pair127_,2.1443671891840967,Studied,,0,2,2,2,0,0,0,2,0,13,13,12,708.1425978799998,,,,,,,,,,,,,,,,,,,,,,,,,,,,,,,,708.1256183469995,2,instructions/Slide167.jpg,recog/images/Pair127_2.jpeg,num_5,708.1425978799998,50.04923395700007,710.2712758629996,710.2712758629996,710.2712758629996,711.3718162229998,53.27832227900035,num_8,0,1.0899200439998822,None,,,,,,,,,,,,,,CBAS0006,1,2025-02-25_10h42.09.930,ObjectScenePairTask_local_recog_final,2024.1.4,None,2025-02-25 10h42.20.438393 -0500,
recog/blocklist_recog_3.xlsx,instructions/Slide167.jpg,recog/imagelist_pair_recog8.xlsx,recog/images/PairN16_,2.5074180324141535,New,,0,2,2,2,0,0,0,2,0,14,14,15,711.7320897369991,,,,,,,,,,,,,,,,,,,,,,,,,,,,,,,,711.3725344079994,4,instructions/Slide167.jpg,recog/images/PairN16_4.jpeg,num_5,711.7320897369991,53.63872508700024,713.8867098779992,713.8867098779992,713.8867098779992,715.2945486399994,57.201057410999965,num_5,1,1.4024254149999251,None,,,,,,,,,,,,,,CBAS0006,1,2025-02-25_10h42.09.930,ObjectScenePairTask_local_recog_final,2024.1.4,None,2025-02-25 10h42.20.438393 -0500,
recog/blocklist_recog_3.xlsx,instructions/Slide167.jpg,recog/imagelist_pair_recog8.xlsx,recog/images/Pair128_,2.9232958398419555,Studied,,0,2,2,2,0,0,0,2,0,15,15,13,715.3134447159991,,,,,,,,,,,,,,,,,,,,,,,,,,,,,,,,715.2953124379992,4,instructions/Slide167.jpg,recog/images/Pair128_4.jpeg,num_5,715.3134447159991,57.220101269000224,718.2168594919995,718.2168594919995,718.2168594919995,719.7922143799997,61.698723753000195,num_8,0,1.5680123399997683,None,,,,,,,,,,,,,,CBAS0006,1,2025-02-25_10h42.09.930,ObjectScenePairTask_local_recog_final,2024.1.4,None,2025-02-25 10h42.20.438393 -0500,
recog/blocklist_recog_3.xlsx,instructions/Slide167.jpg,recog/imagelist_pair_recog8.xlsx,recog/images/Pair119_,1.8047048483558248,Studied,,0,2,2,2,0,0,0,2,0,16,16,5,720.1079289609997,,,,,,,,,,,,,,,,,,,,,,,,,,,,,,,,719.7929500259997,2,instructions/Slide167.jpg,recog/images/Pair119_2.jpeg,num_5,720.1079289609997,62.01451184100006,721.5889098579992,721.5889098579992,721.5889098579992,723.4593067019996,65.36586673700003,num_8,0,1.8601956749998863,None,,,,,,,,,,,,,,CBAS0006,1,2025-02-25_10h42.09.930,ObjectScenePairTask_local_recog_final,2024.1.4,None,2025-02-25 10h42.20.438393 -0500,
recog/blocklist_recog_3.xlsx,instructions/Slide167.jpg,recog/imagelist_pair_recog8.xlsx,,,,,0,2,2,2,0,0,0,2,,,,,,,,,,,,,,,,,,,,,,,,,,,,,,,,,,,,,,,instructions/Slide167.jpg,,,,,,,,,,,,,,723.5338783439993,65.44037525800013,723.5344677679996,,,,,,,,,,,CBAS0006,1,2025-02-25_10h42.09.930,ObjectScenePairTask_local_recog_final,2024.1.4,None,2025-02-25 10h42.20.438393 -0500,
recog/blocklist_recog_3.xlsx,instructions/Slide165.jpg,recog/imagelist_scene_recog1.xlsx,recog/images/ScnN3_,1.8949353820471324,New,,0,2,2,2,0,1,1,0,0,0,0,16,731.4878831359993,,,,,,,,,,,,,,,,,,,,,,,,,,,723.5346429299998,723.5608161939999,724.5307737449994,731.4642804619998,73.37078336600007,731.4728203619998,1,instructions/Slide165.jpg,recog/images/ScnN3_1.jpeg,num_5,731.4878831359993,73.39453186799983,733.353075649,733.353075649,733.353075649,734.7971025689994,76.70360813499974,num_5,1,1.4400953780004784,None,,,,,,,,,,,,,,CBAS0006,1,2025-02-25_10h42.09.930,ObjectScenePairTask_local_recog_final,2024.1.4,None,2025-02-25 10h42.20.438393 -0500,
recog/blocklist_recog_3.xlsx,instructions/Slide165.jpg,recog/imagelist_scene_recog1.xlsx,recog/images/Scn2_,1.2706686911992229,Studied,,0,2,2,2,0,1,1,0,0,1,1,1,734.8169190129993,,,,,,,,,,,,,,,,,,,,,,,,,,,,,,,,734.7981492259996,1,instructions/Slide165.jpg,recog/images/Scn2_1.jpeg,num_8,734.8169190129993,76.72364033200029,736.0620827269995,736.0620827269995,736.0620827269995,737.4128207169997,79.31932479900024,num_5,0,1.3390885120006715,None,,,,,,,,,,,,,,CBAS0006,1,2025-02-25_10h42.09.930,ObjectScenePairTask_local_recog_final,2024.1.4,None,2025-02-25 10h42.20.438393 -0500,
recog/blocklist_recog_3.xlsx,instructions/Slide165.jpg,recog/imagelist_scene_recog1.xlsx,recog/images/Scn68_,2.8584429448105944,Studied,,0,2,2,2,0,1,1,0,0,2,2,13,737.4303588119992,,,,,,,,,,,,,,,,,,,,,,,,,,,,,,,,737.4134386179994,1,instructions/Slide165.jpg,recog/images/Scn68_1.jpeg,num_8,737.4303588119992,79.3369921350004,740.2776171299993,740.2776171299993,740.2776171299993,741.3320266249993,83.23853529600001,num_8,1,1.0516209349998462,None,,,,,,,,,,,,,,CBAS0006,1,2025-02-25_10h42.09.930,ObjectScenePairTask_local_recog_final,2024.1.4,None,2025-02-25 10h42.20.438393 -0500,
recog/blocklist_recog_3.xlsx,instructions/Slide165.jpg,recog/imagelist_scene_recog1.xlsx,recog/images/Scn7_,1.1271883322337766,Studied,,0,2,2,2,0,1,1,0,0,3,3,6,741.3522822609993,,,,,,,,,,,,,,,,,,,,,,,,,,,,,,,,741.3329273529998,1,instructions/Slide165.jpg,recog/images/Scn7_1.jpeg,num_8,741.3522822609993,83.2589166050002,742.4492805389991,742.4492805389991,742.4492805389991,743.8954679449998,85.80197661799957,num_5,0,1.4318746730004932,None,,,,,,,,,,,,,,CBAS0006,1,2025-02-25_10h42.09.930,ObjectScenePairTask_local_recog_final,2024.1.4,None,2025-02-25 10h42.20.438393 -0500,
recog/blocklist_recog_3.xlsx,instructions/Slide165.jpg,recog/imagelist_scene_recog1.xlsx,recog/images/Scn8_,2.5483208722990875,Studied,,0,2,2,2,0,1,1,0,0,4,4,7,743.9124737159991,,,,,,,,,,,,,,,,,,,,,,,,,,,,,,,,743.8961085359997,1,instructions/Slide165.jpg,recog/images/Scn8_1.jpeg,num_8,743.9124737159991,85.81910949699977,746.4423590589995,746.4423590589995,746.4423590589995,747.7278091669996,89.63432003900016,num_5,0,1.2791879950000293,None,,,,,,,,,,,,,,CBAS0006,1,2025-02-25_10h42.09.930,ObjectScenePairTask_local_recog_final,2024.1.4,None,2025-02-25 10h42.20.438393 -0500,
